PacketCounter,SampleTimeFine,Euler_X,Euler_Y,Euler_Z,Acc_X,Acc_Y,Acc_Z,Gyr_X,Gyr_Y,Gyr_Z,Mag_X,Mag_Y,Mag_Z,
0, 662132045, 4.842206954956055, 5.875175476074219, 32.31858444213867, 0, 0, 0, 0, 0, 0, 0.36328125, 0.34814453125, -0.756591796875, 
1, 662140378, 4.839620113372803, 5.846579074859619, 32.32185363769531, -1.0078176259994507, 0.8153151273727417, 9.822278022766113, -0.35083821415901184, -3.3868424892425537, 0.6786620020866394, 0.365234375, 0.3486328125, -0.759033203125, 
2, 662148711, 4.836774826049805, 5.818422317504883, 32.325469970703125, -1.0009468793869019, 0.8331913948059082, 9.8630952835083, -0.3852124810218811, -3.331080198287964, 0.7147780656814575, 0.36279296875, 0.3515625, -0.757568359375, 
3, 662157044, 4.831346035003662, 5.785338401794434, 32.365379333496094, -0.9943190813064575, 0.834560751914978, 9.827006340026855, -0.42294228076934814, -3.285205125808716, 0.6984105706214905, 0.36328125, 0.349609375, -0.761474609375, 
4, 662165377, 4.828325271606445, 5.759558200836182, 32.36788558959961, -0.9930281043052673, 0.8248695731163025, 9.823895454406738, -0.3919233977794647, -3.0573151111602783, 0.5574042201042175, 0.36279296875, 0.34912109375, -0.759033203125, 
5, 662173710, 4.82616662979126, 5.723711967468262, 32.360328674316406, -0.9827994108200073, 0.8207098841667175, 9.877470016479492, -0.36069968342781067, -2.922917366027832, 0.5819938778877258, 0.3623046875, 0.35009765625, -0.758544921875, 
6, 662182043, 4.823188304901123, 5.697385787963867, 32.363033294677734, -1.0098276138305664, 0.8203131556510925, 9.876215934753418, -0.3902585208415985, -3.1196091175079346, 0.5885511040687561, 0.365234375, 0.3486328125, -0.759033203125, 
7, 662190376, 4.8129472732543945, 5.660183429718018, 32.35721206665039, -0.9907799363136292, 0.8345053791999817, 9.8565034866333, -0.38367563486099243, -3.2163541316986084, 0.619672417640686, 0.3623046875, 0.35009765625, -0.756591796875, 
8, 662198709, 4.809708595275879, 5.633462429046631, 32.35955810546875, -0.996861457824707, 0.8248382210731506, 9.893699645996094, -0.4166155159473419, -3.172041177749634, 0.5492588877677917, 0.36376953125, 0.35009765625, -0.758056640625, 
9, 662207042, 4.800725936889648, 5.610227108001709, 32.37095642089844, -0.995904266834259, 0.8407648801803589, 9.897903442382812, -0.4868498146533966, -3.188459873199463, 0.64290452003479, 0.36328125, 0.34814453125, -0.760498046875, 
10, 662215375, 4.797187805175781, 5.582076549530029, 32.37288284301758, -1.0152760744094849, 0.8384121656417847, 9.871081352233887, -0.44635364413261414, -3.347421646118164, 0.5115802884101868, 0.36474609375, 0.35205078125, -0.760009765625, 
11, 662223708, 4.7913899421691895, 5.562501907348633, 32.40763473510742, -1.0288203954696655, 0.8378780484199524, 9.857100486755371, -0.4687148928642273, -3.29009747505188, 0.6936207413673401, 0.359375, 0.35107421875, -0.758056640625, 
12, 662232041, 4.787433624267578, 5.53482723236084, 32.41118240356445, -1.0018566846847534, 0.8189082741737366, 9.888605117797852, -0.5162037014961243, -3.275343894958496, 0.7003573179244995, 0.36181640625, 0.3505859375, -0.760986328125, 
13, 662240374, 4.7853240966796875, 5.525078296661377, 32.393150329589844, -0.999006450176239, 0.8036308884620667, 9.887306213378906, -0.5262956619262695, -3.429413080215454, 0.6609880924224854, 0.3623046875, 0.3525390625, -0.759521484375, 
14, 662248707, 4.781703948974609, 5.49656867980957, 32.39630126953125, -0.9922373294830322, 0.8304890394210815, 9.86956787109375, -0.47053349018096924, -3.378645420074463, 0.6607832312583923, 0.361328125, 0.34765625, -0.759033203125, 
15, 662257040, 4.775146007537842, 5.48645544052124, 32.400917053222656, -0.9800068140029907, 0.8335268497467041, 9.868213653564453, -0.5166391730308533, -3.403184175491333, 0.6134481430053711, 0.36181640625, 0.3515625, -0.761474609375, 
16, 662265373, 4.771095275878906, 5.458735942840576, 32.40328598022461, -1.0061941146850586, 0.8274182677268982, 9.858059883117676, -0.5134885311126709, -3.291685104370117, 0.5593764185905457, 0.3623046875, 0.35107421875, -0.760009765625, 
17, 662273706, 4.767031669616699, 5.447669506072998, 32.41153335571289, -1.0013904571533203, 0.8341203331947327, 9.854941368103027, -0.4671267867088318, -3.219632387161255, 0.6477199196815491, 0.36376953125, 0.349609375, -0.758544921875, 
18, 662282039, 4.762548446655273, 5.419888496398926, 32.41389846801758, -0.9766125082969666, 0.8352870345115662, 9.855277061462402, -0.5659977197647095, -3.299830436706543, 0.5579932928085327, 0.3671875, 0.352294921875, -0.758544921875, 
19, 662290372, 4.7593889236450195, 5.4111762046813965, 32.4522590637207, -1.02103853225708, 0.8291352391242981, 9.86182975769043, -0.49589160084724426, -3.114562749862671, 0.44298532605171204, 0.3642578125, 0.34765625, -0.760498046875, 
20, 662298705, 4.754505634307861, 5.384585380554199, 32.45515441894531, -1.0109386444091797, 0.8467194437980652, 9.875127792358398, -0.618020236492157, -3.1522927284240723, 0.6108354330062866, 0.36669921875, 0.34765625, -0.759521484375, 
21, 662307038, 4.752584457397461, 5.375382423400879, 32.50191116333008, -1.0134245157241821, 0.8038869500160217, 9.903145790100098, -0.46400192379951477, -3.1720924377441406, 0.5984894037246704, 0.36328125, 0.349609375, -0.758544921875, 
22, 662315371, 4.748768329620361, 5.3487982749938965, 32.504295349121094, -1.0057237148284912, 0.8491570949554443, 9.841455459594727, -0.4839297831058502, -3.1556482315063477, 0.5477988123893738, 0.3623046875, 0.3505859375, -0.757568359375, 
23, 662323704, 4.746245384216309, 5.340498447418213, 32.53749084472656, -1.0209511518478394, 0.8338949680328369, 9.873316764831543, -0.49230557680130005, -3.178572654724121, 0.52162104845047, 0.3623046875, 0.34912109375, -0.760009765625, 
24, 662332037, 4.741568565368652, 5.313103199005127, 32.53976821899414, -1.0111042261123657, 0.8258923292160034, 9.85910415649414, -0.5873600244522095, -3.2538788318634033, 0.5418051481246948, 0.36328125, 0.3515625, -0.758544921875, 
25, 662340370, 4.738522529602051, 5.305020332336426, 32.56416320800781, -0.9949946999549866, 0.8267967700958252, 9.89064884185791, -0.7020605206489563, -3.2341043949127197, 0.5540486574172974, 0.36328125, 0.35107421875, -0.756591796875, 
26, 662348703, 4.734500408172607, 5.277451992034912, 32.566566467285156, -0.9632426500320435, 0.8370013236999512, 9.856047630310059, -0.5085962414741516, -3.2736783027648926, 0.5592739582061768, 0.36083984375, 0.34765625, -0.760009765625, 
27, 662357036, 4.732450485229492, 5.269471168518066, 32.59348678588867, -1.0026620626449585, 0.7943213582038879, 9.84611988067627, -0.5648707151412964, -3.1688649654388428, 0.7023807168006897, 0.3623046875, 0.35107421875, -0.757568359375, 
28, 662365369, 4.7287278175354, 5.240750312805176, 32.597816467285156, -0.9905660152435303, 0.8266192674636841, 9.861237525939941, -0.4956097900867462, -3.393656015396118, 0.7983829379081726, 0.36474609375, 0.349609375, -0.759033203125, 
29, 662373702, 4.727010726928711, 5.231603145599365, 32.617042541503906, -0.9689712524414062, 0.8186337947845459, 9.859709739685059, -0.4444325566291809, -3.170530319213867, 0.5834794640541077, 0.36669921875, 0.350341796875, -0.758056640625, 
30, 662382035, 4.723403453826904, 5.205661296844482, 32.61973571777344, -0.9880024790763855, 0.838251531124115, 9.86246395111084, -0.46236249804496765, -3.077089309692383, 0.5771783590316772, 0.36328125, 0.35498046875, -0.762451171875, 
31, 662390368, 4.722833156585693, 5.196606636047363, 32.66727828979492, -1.0253095626831055, 0.8177379369735718, 9.883710861206055, -0.2965616285800934, -3.031444787979126, 0.6005385518074036, 0.3623046875, 0.35107421875, -0.760009765625, 
32, 662398701, 4.720427513122559, 5.170293807983398, 32.67161178588867, -1.026856541633606, 0.8211330771446228, 9.860489845275879, -0.3362380564212799, -3.105341672897339, 0.7761498093605042, 0.36279296875, 0.3486328125, -0.760009765625, 
33, 662407034, 4.719050884246826, 5.158710956573486, 32.68783950805664, -1.0076587200164795, 0.806014358997345, 9.873517036437988, -0.4128758907318115, -3.3657875061035156, 0.6764847636222839, 0.361328125, 0.34814453125, -0.759033203125, 
34, 662415367, 4.715529918670654, 5.13083028793335, 32.69070053100586, -1.007498860359192, 0.8053925633430481, 9.91443920135498, -0.4526548385620117, -3.3066442012786865, 0.6162657737731934, 0.36279296875, 0.35205078125, -0.760498046875, 
35, 662423700, 4.713521480560303, 5.119965553283691, 32.71995162963867, -1.031044602394104, 0.8252243399620056, 9.862408638000488, -0.4481467008590698, -3.3396353721618652, 0.7620619535446167, 0.36181640625, 0.35205078125, -0.756103515625, 
36, 662432033, 4.711042404174805, 5.0923237800598145, 32.723079681396484, -1.0147022008895874, 0.828330397605896, 9.882923126220703, -0.3310639560222626, -3.2757787704467773, 0.6446974277496338, 0.36328125, 0.3515625, -0.756103515625, 
37, 662440366, 4.708892345428467, 5.081629753112793, 32.75929260253906, -0.9794995188713074, 0.8260417580604553, 9.849893569946289, -0.4197404980659485, -3.3690662384033203, 0.645389199256897, 0.36328125, 0.35107421875, -0.760498046875, 
38, 662448699, 4.706120014190674, 5.05299186706543, 32.762428283691406, -1.0194616317749023, 0.8182855248451233, 9.900697708129883, -0.36559200286865234, -3.395397663116455, 0.656326413154602, 0.36279296875, 0.3515625, -0.759521484375, 
39, 662457032, 4.704169750213623, 5.040981769561768, 32.78044128417969, -0.9927806854248047, 0.8214361071586609, 9.889842987060547, -0.416922926902771, -3.4936535358428955, 0.6222593784332275, 0.3623046875, 0.35009765625, -0.758544921875, 
40, 662465365, 4.701231002807617, 5.012372016906738, 32.78419876098633, -1.008209466934204, 0.8137398362159729, 9.870645523071289, -0.3910781741142273, -3.387277841567993, 0.7287378907203674, 0.3623046875, 0.349609375, -0.761474609375, 
41, 662473698, 4.699592590332031, 5.00087308883667, 32.81221389770508, -1.0105443000793457, 0.8261627554893494, 9.871374130249023, -0.37481313943862915, -3.411893129348755, 0.7203620076179504, 0.36279296875, 0.34814453125, -0.759521484375, 
42, 662482031, 4.696757793426514, 4.970130920410156, 32.81642532348633, -1.002094030380249, 0.8147488832473755, 9.87179183959961, -0.38421350717544556, -3.6382458209991455, 0.80373615026474, 0.365234375, 0.353515625, -0.762451171875, 
43, 662490364, 4.69508695602417, 4.956761837005615, 32.845497131347656, -1.000495433807373, 0.8326579928398132, 9.865175247192383, -0.37842467427253723, -3.6414730548858643, 0.7380869388580322, 0.361328125, 0.35107421875, -0.759521484375, 
44, 662498697, 4.69168758392334, 4.925997734069824, 32.8480339050293, -0.974743664264679, 0.8448691368103027, 9.876333236694336, -0.43400755524635315, -3.6575329303741455, 0.6009482741355896, 0.3623046875, 0.349609375, -0.758056640625, 
45, 662507030, 4.690037727355957, 4.914214134216309, 32.86532211303711, -0.9980274438858032, 0.802513837814331, 9.829817771911621, -0.3785015940666199, -3.4414007663726807, 0.6875244975090027, 0.36376953125, 0.3505859375, -0.759521484375, 
46, 662515363, 4.687148094177246, 4.8853440284729, 32.8690185546875, -1.0049231052398682, 0.8258211612701416, 9.865506172180176, -0.3845977783203125, -3.4201154708862305, 0.7221037745475769, 0.36181640625, 0.35107421875, -0.760986328125, 
47, 662523696, 4.686146259307861, 4.872628211975098, 32.888118743896484, -1.0065345764160156, 0.8143519163131714, 9.900967597961426, -0.3260692358016968, -3.5024139881134033, 0.8376752138137817, 0.36474609375, 0.3544921875, -0.759033203125, 
48, 662532029, 4.684300422668457, 4.843001842498779, 32.89209747314453, -0.9797875285148621, 0.8359796404838562, 9.880903244018555, -0.26136770844459534, -3.507408618927002, 0.7631121873855591, 0.3642578125, 0.35009765625, -0.758056640625, 
49, 662540362, 4.684030055999756, 4.831228256225586, 32.93126678466797, -0.9967749714851379, 0.8157086372375488, 9.876437187194824, -0.21672207117080688, -3.408947706222534, 0.6430326104164124, 0.36181640625, 0.34814453125, -0.760009765625, 
50, 662548695, 4.681778907775879, 4.802631855010986, 32.934173583984375, -0.9716575741767883, 0.8428241014480591, 9.871051788330078, -0.2988925576210022, -3.3956024646759033, 0.6244367361068726, 0.3642578125, 0.349609375, -0.761474609375, 
51, 662557028, 4.680734157562256, 4.791297912597656, 32.9628791809082, -1.0015661716461182, 0.8261603713035583, 9.870585441589355, -0.3067304790019989, -3.3380215167999268, 0.5148077607154846, 0.36279296875, 0.349609375, -0.759521484375, 
52, 662565361, 4.678734302520752, 4.76358699798584, 32.965267181396484, -1.004637360572815, 0.8147147297859192, 9.918905258178711, -0.26510733366012573, -3.2939395904541016, 0.5519996285438538, 0.36376953125, 0.35009765625, -0.761474609375, 
53, 662573694, 4.677420139312744, 4.752038955688477, 33.00178909301758, -1.0097419023513794, 0.8163263201713562, 9.892204284667969, -0.3663604259490967, -3.3347690105438232, 0.5926494598388672, 0.36572265625, 0.3515625, -0.761474609375, 
54, 662582027, 4.675562381744385, 4.723155975341797, 33.00465393066406, -0.9834774732589722, 0.8324152827262878, 9.87021255493164, -0.2514549791812897, -3.4318723678588867, 0.618827223777771, 0.3623046875, 0.3525390625, -0.759033203125, 
55, 662590360, 4.675007343292236, 4.711947917938232, 33.02766036987305, -0.9871330857276917, 0.8302929997444153, 9.885645866394043, -0.2570388615131378, -3.3038523197174072, 0.5502322316169739, 0.36376953125, 0.35107421875, -0.760009765625, 
56, 662598693, 4.672708988189697, 4.684720516204834, 33.03117752075195, -0.9814431071281433, 0.8227559924125671, 9.85312557220459, -0.3107263147830963, -3.228520631790161, 0.6790462136268616, 0.35986328125, 0.34765625, -0.760498046875, 
57, 662607026, 4.672266006469727, 4.672445297241211, 33.06252670288086, -1.0043967962265015, 0.8207759857177734, 9.850735664367676, -0.2572181820869446, -3.4120724201202393, 0.5598632097244263, 0.36376953125, 0.35009765625, -0.758056640625, 
58, 662615359, 4.668968677520752, 4.644270420074463, 33.065818786621094, -0.9597655534744263, 0.8183961510658264, 9.829948425292969, -0.42606720328330994, -3.3446044921875, 0.660834550857544, 0.36181640625, 0.349609375, -0.759521484375, 
59, 662623692, 4.667596817016602, 4.63391637802124, 33.097476959228516, -0.9683694839477539, 0.8288307785987854, 9.86390495300293, -0.36966460943222046, -3.1773431301116943, 0.5619122385978699, 0.35888671875, 0.34912109375, -0.760498046875, 
60, 662632025, 4.665186405181885, 4.60733699798584, 33.10022735595703, -1.0046061277389526, 0.8177362680435181, 9.847268104553223, -0.3152599632740021, -3.159541130065918, 0.5775625109672546, 0.36328125, 0.3505859375, -0.759033203125, 
61, 662640358, 4.664269924163818, 4.597269535064697, 33.11085891723633, -1.0001229047775269, 0.83181232213974, 9.899124145507812, -0.3103164732456207, -3.1150238513946533, 0.4627852439880371, 0.3603515625, 0.35302734375, -0.761474609375, 
62, 662648691, 4.661931037902832, 4.571455001831055, 33.11381912231445, -1.0053883790969849, 0.835248589515686, 9.877954483032227, -0.3081904947757721, -3.066126585006714, 0.5940325260162354, 0.36376953125, 0.35107421875, -0.760009765625, 
63, 662657024, 4.661860942840576, 4.561246871948242, 33.12824249267578, -1.0050653219223022, 0.8442103862762451, 9.862099647521973, -0.2197701632976532, -3.13039231300354, 0.599052906036377, 0.361328125, 0.34814453125, -0.760498046875, 
64, 662665357, 4.659367561340332, 4.533935546875, 33.13080978393555, -0.9824570417404175, 0.8181813359260559, 9.86191177368164, -0.3239688575267792, -3.251317262649536, 0.5627831816673279, 0.365234375, 0.35009765625, -0.760009765625, 
65, 662673690, 4.657627582550049, 4.524100303649902, 33.15089416503906, -0.994047224521637, 0.8287713527679443, 9.862997055053711, -0.4376704692840576, -3.096914768218994, 0.6009995937347412, 0.3603515625, 0.34814453125, -0.757568359375, 
66, 662682023, 4.654222011566162, 4.498594284057617, 33.15410232543945, -1.0045199394226074, 0.8246913552284241, 9.852992057800293, -0.43874621391296387, -3.0297796726226807, 0.6224642992019653, 0.36279296875, 0.349609375, -0.760009765625, 
67, 662690356, 4.653573989868164, 4.487997531890869, 33.17591094970703, -0.9795248508453369, 0.8369223475456238, 9.865656852722168, -0.29827776551246643, -3.190713882446289, 0.5198025107383728, 0.3603515625, 0.34716796875, -0.758544921875, 
68, 662698689, 4.650166034698486, 4.462502956390381, 33.17959213256836, -0.9715411067008972, 0.8307394981384277, 9.90999698638916, -0.4443557858467102, -3.023325204849243, 0.6750760078430176, 0.36279296875, 0.35009765625, -0.759033203125, 
69, 662707022, 4.649130344390869, 4.452557563781738, 33.20561981201172, -1.0078370571136475, 0.8287544846534729, 9.899040222167969, -0.3561915457248688, -3.1086456775665283, 0.5750267505645752, 0.361328125, 0.35009765625, -0.757568359375, 
70, 662715355, 4.646162033081055, 4.425902366638184, 33.20932388305664, -1.0108630657196045, 0.8139439225196838, 9.844758033752441, -0.390514612197876, -3.1629226207733154, 0.6869866251945496, 0.36328125, 0.34765625, -0.759033203125, 
71, 662723688, 4.644129276275635, 4.416550159454346, 33.233856201171875, -0.9430676698684692, 0.8531817197799683, 9.859733581542969, -0.471942275762558, -3.036004066467285, 0.5066879987716675, 0.36083984375, 0.34814453125, -0.759033203125, 
72, 662732021, 4.6407012939453125, 4.391756057739258, 33.23625946044922, -0.9780455827713013, 0.8344349265098572, 9.887186050415039, -0.43380266427993774, -2.955831527709961, 0.5143978595733643, 0.36474609375, 0.3505859375, -0.758056640625, 
73, 662740354, 4.639169692993164, 4.3816938400268555, 33.25745391845703, -1.0013819932937622, 0.8212937712669373, 9.888579368591309, -0.41553980112075806, -3.1132309436798096, 0.46616628766059875, 0.361328125, 0.3486328125, -0.758544921875, 
74, 662748687, 4.635595798492432, 4.3564934730529785, 33.259849548339844, -1.0028283596038818, 0.8171668648719788, 9.874642372131348, -0.4503238797187805, -3.0049853324890137, 0.516216516494751, 0.3623046875, 0.34814453125, -0.754150390625, 
75, 662757020, 4.633875370025635, 4.3466596603393555, 33.289154052734375, -1.0000083446502686, 0.8257417678833008, 9.882547378540039, -0.44409966468811035, -3.0820839405059814, 0.512681782245636, 0.36181640625, 0.34814453125, -0.760986328125, 
76, 662765353, 4.630514144897461, 4.319904804229736, 33.291934967041016, -1.0105968713760376, 0.8327042460441589, 9.872635841369629, -0.4285261332988739, -3.187230348587036, 0.5761025547981262, 0.3623046875, 0.3505859375, -0.759033203125, 
77, 662773686, 4.628573894500732, 4.309413909912109, 33.3165397644043, -0.9807332158088684, 0.8411703109741211, 9.859430313110352, -0.46576929092407227, -3.1689419746398926, 0.5096080303192139, 0.361328125, 0.3505859375, -0.757568359375, 
78, 662782019, 4.624541759490967, 4.283074855804443, 33.31935501098633, -1.023859977722168, 0.8097406029701233, 9.86345386505127, -0.5087499618530273, -3.141047954559326, 0.5728238821029663, 0.35986328125, 0.3515625, -0.760498046875, 
79, 662790352, 4.623672008514404, 4.271864414215088, 33.34373092651367, -1.025090217590332, 0.820084273815155, 9.902713775634766, -0.3552694618701935, -3.2483718395233154, 0.64500492811203, 0.3623046875, 0.34814453125, -0.760009765625, 
80, 662798685, 4.621438026428223, 4.2441630363464355, 33.3466796875, -0.9845079183578491, 0.8360363245010376, 9.879916191101074, -0.29402583837509155, -3.3026485443115234, 0.6027158498764038, 0.36474609375, 0.3515625, -0.760986328125, 
81, 662807018, 4.620752334594727, 4.232852458953857, 33.37491226196289, -1.0151751041412354, 0.8067048192024231, 9.868861198425293, -0.3203316032886505, -3.2877659797668457, 0.5950570702552795, 0.36279296875, 0.349609375, -0.759033203125, 
82, 662815351, 4.617820739746094, 4.205403804779053, 33.37862777709961, -0.9920512437820435, 0.8043124675750732, 9.870473861694336, -0.3839317858219147, -3.2664811611175537, 0.6914947628974915, 0.36181640625, 0.34912109375, -0.759033203125, 
83, 662823684, 4.618546009063721, 4.19390869140625, 33.405033111572266, -0.9923447966575623, 0.8335670828819275, 9.831016540527344, -0.1589619368314743, -3.306746482849121, 0.7163405418395996, 0.361328125, 0.3505859375, -0.758056640625, 
84, 662832017, 4.617049217224121, 4.167216777801514, 33.40753173828125, -0.9708003997802734, 0.8073626160621643, 9.883859634399414, -0.20148156583309174, -3.1897406578063965, 0.5371689200401306, 0.3623046875, 0.35205078125, -0.758056640625, 
85, 662840350, 4.618012428283691, 4.1574015617370605, 33.42971420288086, -0.9789227247238159, 0.831144392490387, 9.879486083984375, -0.11080717295408249, -3.1260123252868652, 0.4715196192264557, 0.36181640625, 0.35107421875, -0.761474609375, 
86, 662848683, 4.616582870483398, 4.131746768951416, 33.43256759643555, -0.9853772521018982, 0.8276255130767822, 9.836421012878418, -0.19707591831684113, -3.0636417865753174, 0.5685974955558777, 0.36083984375, 0.35302734375, -0.760009765625, 
87, 662857016, 4.618458271026611, 4.121865749359131, 33.4532585144043, -1.009971261024475, 0.8165748715400696, 9.889349937438965, -0.0028431799728423357, -3.1233744621276855, 0.5364261269569397, 0.36181640625, 0.34716796875, -0.761962890625, 
88, 662865349, 4.618669509887695, 4.095157146453857, 33.4563102722168, -0.9703566431999207, 0.8218355178833008, 9.895662307739258, -0.00007684269803576171, -3.1891257762908936, 0.6018191576004028, 0.36328125, 0.34814453125, -0.759033203125, 
89, 662873682, 4.620579719543457, 4.084414005279541, 33.481021881103516, -0.9693813323974609, 0.821940004825592, 9.89627456665039, -0.0006659701466560364, -3.2301344871520996, 0.5836843252182007, 0.3603515625, 0.34912109375, -0.758056640625, 
90, 662882015, 4.621219158172607, 4.058053970336914, 33.483890533447266, -0.9970249533653259, 0.837141215801239, 9.865220069885254, 0.05195847526192665, -3.1516008377075195, 0.5761537551879883, 0.36279296875, 0.34716796875, -0.757568359375, 
91, 662890348, 4.622762680053711, 4.048602104187012, 33.50233459472656, -1.0211931467056274, 0.8357875347137451, 9.835799217224121, -0.038882408291101456, -3.0707881450653076, 0.5308422446250916, 0.365234375, 0.34912109375, -0.760498046875, 
92, 662898681, 4.623504638671875, 4.022167205810547, 33.504878997802734, -0.9715433120727539, 0.8426993489265442, 9.863581657409668, 0.06745508313179016, -3.1663801670074463, 0.5380397439002991, 0.3623046875, 0.3486328125, -0.758544921875, 
93, 662907014, 4.625513076782227, 4.013034343719482, 33.53403854370117, -1.0022609233856201, 0.8322078585624695, 9.852752685546875, 0.011487984098494053, -3.0496561527252197, 0.5052279829978943, 0.36083984375, 0.35205078125, -0.757568359375, 
94, 662915347, 4.6253228187561035, 3.986776351928711, 33.53622817993164, -0.9912956953048706, 0.8265602588653564, 9.878518104553223, -0.04169997200369835, -3.149449348449707, 0.49303555488586426, 0.36181640625, 0.35009765625, -0.760498046875, 
95, 662923680, 4.627198696136475, 3.9777817726135254, 33.55439758300781, -0.9914432168006897, 0.8540788888931274, 9.88851547241211, -0.009477267041802406, -3.0381813049316406, 0.5188291072845459, 0.3603515625, 0.3486328125, -0.755615234375, 
96, 662932013, 4.627676963806152, 3.9530065059661865, 33.55717086791992, -0.9735366702079773, 0.8340281844139099, 9.866230964660645, 0.03410535678267479, -2.967921495437622, 0.5458778142929077, 0.36181640625, 0.34912109375, -0.759521484375, 
97, 662940346, 4.62971830368042, 3.9446678161621094, 33.57859420776367, -0.9779621958732605, 0.8396572470664978, 9.874424934387207, 0.0026254593394696712, -2.964463472366333, 0.5318668484687805, 0.3583984375, 0.35107421875, -0.758544921875, 
98, 662948679, 4.630520343780518, 3.919095516204834, 33.580928802490234, -0.9899469614028931, 0.8454083800315857, 9.879295349121094, 0.07690674066543579, -3.0697121620178223, 0.5036142468452454, 0.36328125, 0.3505859375, -0.759033203125, 
99, 662957012, 4.63313627243042, 3.9102444648742676, 33.593963623046875, -0.9902978539466858, 0.8402647376060486, 9.856093406677246, 0.06842842698097229, -3.023913860321045, 0.5531265735626221, 0.361328125, 0.3486328125, -0.760986328125, 
100, 662965345, 4.633434295654297, 3.885468006134033, 33.596858978271484, -0.9972096681594849, 0.8478665947914124, 9.84794807434082, 0.01307606790214777, -2.972839593887329, 0.5595045685768127, 0.361328125, 0.3486328125, -0.759033203125, 
101, 662973678, 4.635921478271484, 3.8780174255371094, 33.61874008178711, -0.9994769096374512, 0.8168303370475769, 9.857505798339844, 0.054724808782339096, -2.872687578201294, 0.432509183883667, 0.36279296875, 0.349609375, -0.764404296875, 
102, 662982011, 4.636678218841553, 3.853715181350708, 33.62137222290039, -0.9850224852561951, 0.8387887477874756, 9.887063980102539, 0.06822352111339569, -2.920560836791992, 0.5238751769065857, 0.3583984375, 0.3486328125, -0.759521484375, 
103, 662990344, 4.639415740966797, 3.8459975719451904, 33.64619064331055, -1.0037257671356201, 0.8466069102287292, 9.866652488708496, 0.07383303344249725, -2.9011707305908203, 0.6139603853225708, 0.361328125, 0.35107421875, -0.758544921875, 
104, 662998677, 4.640030860900879, 3.821763753890991, 33.649131774902344, -1.0029889345169067, 0.8431318998336792, 9.87089729309082, 0.049473896622657776, -2.9123899936676025, 0.5604267120361328, 0.36181640625, 0.3505859375, -0.761962890625, 
105, 663007010, 4.641597747802734, 3.8138561248779297, 33.66718673706055, -0.9953867197036743, 0.8156805634498596, 9.87099552154541, -0.06810824573040009, -2.936518430709839, 0.5846577286720276, 0.3623046875, 0.35107421875, -0.759033203125, 
106, 663015343, 4.642364978790283, 3.7884929180145264, 33.670467376708984, -0.9992475509643555, 0.8322466015815735, 9.890239715576172, 0.06486805528402328, -3.0454559326171875, 0.6105024814605713, 0.359375, 0.3486328125, -0.760009765625, 
107, 663023676, 4.644107341766357, 3.779982089996338, 33.693782806396484, -1.023635983467102, 0.8234037756919861, 9.901287078857422, -0.040649786591529846, -3.0283193588256836, 0.521416187286377, 0.36181640625, 0.3525390625, -0.760009765625, 
108, 663032009, 4.64382266998291, 3.7531676292419434, 33.6961669921875, -0.9790816307067871, 0.8486891984939575, 9.896111488342285, -0.0548400804400444, -3.229980707168579, 0.5163701772689819, 0.361328125, 0.3486328125, -0.761474609375, 
109, 663040342, 4.644922256469727, 3.7431294918060303, 33.71567153930664, -0.9928883910179138, 0.8418384790420532, 9.824167251586914, -0.11457246541976929, -3.224883556365967, 0.5523838400840759, 0.361328125, 0.3486328125, -0.759033203125, 
110, 663048675, 4.644341945648193, 3.718393087387085, 33.71855926513672, -0.9861786961555481, 0.8324146270751953, 9.86119270324707, -0.09359440952539444, -2.980651378631592, 0.5573785305023193, 0.36181640625, 0.34765625, -0.759521484375, 
111, 663057008, 4.645310401916504, 3.7116034030914307, 33.741146087646484, -0.9920168519020081, 0.8269224166870117, 9.867440223693848, -0.1359347403049469, -2.842693328857422, 0.5424454808235168, 0.3603515625, 0.349609375, -0.761474609375, 
112, 663065341, 4.644190788269043, 3.6868481636047363, 33.74314880371094, -0.9938121438026428, 0.8229772448539734, 9.905048370361328, -0.15063731372356415, -2.993279457092285, 0.4490046799182892, 0.3623046875, 0.34912109375, -0.757568359375, 
113, 663073674, 4.645224571228027, 3.6785850524902344, 33.761749267578125, -1.005407452583313, 0.8322999477386475, 9.880731582641602, -0.11943916231393814, -3.037745475769043, 0.45953214168548584, 0.36328125, 0.34716796875, -0.760986328125, 
114, 663082007, 4.643459796905518, 3.653381586074829, 33.76411819458008, -1.0110594034194946, 0.8304573893547058, 9.865216255187988, -0.23162952065467834, -3.0471460819244385, 0.4969801604747772, 0.36083984375, 0.35107421875, -0.758544921875, 
115, 663090340, 4.644211292266846, 3.6458120346069336, 33.790042877197266, -0.9854821562767029, 0.8429564833641052, 9.84627914428711, -0.1551966369152069, -2.9623374938964844, 0.5180350542068481, 0.36181640625, 0.3505859375, -0.759521484375, 
116, 663098673, 4.642616271972656, 3.6217803955078125, 33.79338073730469, -1.0027985572814941, 0.8427892923355103, 9.886430740356445, -0.21818207204341888, -2.8999156951904297, 0.6003080606460571, 0.36328125, 0.34765625, -0.759521484375, 
117, 663107006, 4.6420817375183105, 3.6148924827575684, 33.81410598754883, -1.0013576745986938, 0.8259207010269165, 9.905295372009277, -0.3093430995941162, -2.8959453105926514, 0.5060988664627075, 0.3642578125, 0.34912109375, -0.762451171875, 
118, 663115339, 4.638835906982422, 3.590254068374634, 33.81669235229492, -0.9990957379341125, 0.849331259727478, 9.900492668151855, -0.41123658418655396, -2.9840071201324463, 0.5152687430381775, 0.36328125, 0.34765625, -0.759033203125, 
119, 663123672, 4.637912750244141, 3.583469867706299, 33.83964157104492, -0.9986330270767212, 0.8177503347396851, 9.901020050048828, -0.3494293987751007, -2.9053711891174316, 0.4251834750175476, 0.35986328125, 0.349609375, -0.760986328125, 
120, 663132005, 4.6351752281188965, 3.5582518577575684, 33.84292984008789, -0.9992469549179077, 0.8521521091461182, 9.90926456451416, -0.3565245270729065, -3.0485293865203857, 0.6054309010505676, 0.36328125, 0.3486328125, -0.758544921875, 
121, 663140338, 4.6339640617370605, 3.550431728363037, 33.86214065551758, -0.9847344756126404, 0.8481680750846863, 9.86148452758789, -0.389464408159256, -3.0350818634033203, 0.5408061146736145, 0.36181640625, 0.35009765625, -0.761474609375, 
122, 663148671, 4.63145637512207, 3.5238213539123535, 33.864803314208984, -0.9755480289459229, 0.8624244332313538, 9.848909378051758, -0.32322603464126587, -3.225703239440918, 0.5416514277458191, 0.35791015625, 0.34765625, -0.760498046875, 
123, 663157004, 4.629973411560059, 3.51595139503479, 33.88610076904297, -0.9611883163452148, 0.8416381478309631, 9.85975456237793, -0.4260159730911255, -3.0561883449554443, 0.5287162661552429, 0.36328125, 0.353515625, -0.761474609375, 
124, 663165337, 4.6266374588012695, 3.4907705783843994, 33.88920211791992, -0.9900021553039551, 0.8286621570587158, 9.858437538146973, -0.4261696934700012, -3.053088903427124, 0.5779212117195129, 0.3623046875, 0.35107421875, -0.756103515625, 
125, 663173670, 4.625049591064453, 3.483116388320923, 33.910484313964844, -0.9858883619308472, 0.8444828391075134, 9.881064414978027, -0.44491928815841675, -3.034902811050415, 0.5506420731544495, 0.36083984375, 0.35107421875, -0.759033203125, 
126, 663182003, 4.621984004974365, 3.4585518836975098, 33.913326263427734, -1.0028159618377686, 0.8259767889976501, 9.86438274383545, -0.3925125002861023, -2.9876186847686768, 0.5410110354423523, 0.36376953125, 0.3505859375, -0.758544921875, 
127, 663190336, 4.6201043128967285, 3.451245069503784, 33.93402099609375, -1.0188368558883667, 0.8218398690223694, 9.893587112426758, -0.48195746541023254, -3.0052671432495117, 0.5682902336120605, 0.361328125, 0.34716796875, -0.758056640625, 
128, 663198669, 4.6164751052856445, 3.426208972930908, 33.93731689453125, -1.0087093114852905, 0.8358295559883118, 9.895652770996094, -0.46164533495903015, -3.04317569732666, 0.5970549583435059, 0.36474609375, 0.34912109375, -0.760009765625, 
129, 663207002, 4.614504814147949, 3.418505907058716, 33.96150207519531, -1.0038455724716187, 0.8390197157859802, 9.872305870056152, -0.4872339367866516, -3.0789334774017334, 0.5173690915107727, 0.36279296875, 0.35107421875, -0.762451171875, 
130, 663215335, 4.610095977783203, 3.3934731483459473, 33.96464920043945, -0.9912612438201904, 0.8566850423812866, 9.852256774902344, -0.5557008385658264, -3.0475306510925293, 0.5786128044128418, 0.36181640625, 0.3486328125, -0.759033203125, 
131, 663223668, 4.608463764190674, 3.3854494094848633, 33.987220764160156, -0.9928290247917175, 0.8248515725135803, 9.880441665649414, -0.45122039318084717, -3.1318273544311523, 0.5784334540367126, 0.3623046875, 0.3466796875, -0.760986328125, 
132, 663232001, 4.604428768157959, 3.3604228496551514, 33.98977279663086, -1.0046314001083374, 0.8353996872901917, 9.880212783813477, -0.5072129964828491, -3.0574944019317627, 0.5049461722373962, 0.36181640625, 0.3505859375, -0.760498046875, 
133, 663240334, 4.60283899307251, 3.3524889945983887, 34.01591491699219, -1.023881435394287, 0.846076488494873, 9.882264137268066, -0.4521169066429138, -3.132108688354492, 0.6539186835289001, 0.36328125, 0.349609375, -0.760009765625, 
134, 663248667, 4.59873104095459, 3.327314853668213, 34.0194091796875, -0.9935801029205322, 0.8341453075408936, 9.884761810302734, -0.5218388438224792, -3.069302558898926, 0.616931676864624, 0.36474609375, 0.35205078125, -0.760498046875, 
135, 663257000, 4.597114562988281, 3.319429397583008, 34.044734954833984, -0.9776962995529175, 0.8573733568191528, 9.85900592803955, -0.4578288793563843, -3.151754856109619, 0.6326844096183777, 0.36181640625, 0.34716796875, -0.762451171875, 
136, 663265333, 4.592196464538574, 3.292884111404419, 34.047603607177734, -1.0025724172592163, 0.8442407250404358, 9.861321449279785, -0.615074634552002, -3.244093894958496, 0.5537669062614441, 0.36279296875, 0.349609375, -0.759521484375, 
137, 663273666, 4.590391159057617, 3.286870002746582, 34.07057571411133, -0.9947687387466431, 0.8470064401626587, 9.8764066696167, -0.47747498750686646, -2.9527578353881836, 0.49454689025878906, 0.3603515625, 0.3505859375, -0.758544921875, 
138, 663281999, 4.5858306884765625, 3.262359142303467, 34.07282638549805, -0.9956422448158264, 0.8280171751976013, 9.886269569396973, -0.5675346255302429, -3.0128486156463623, 0.4595065414905548, 0.36279296875, 0.34912109375, -0.760498046875, 
139, 663290332, 4.583764553070068, 3.254948854446411, 34.09331130981445, -0.989342212677002, 0.82015061378479, 9.862719535827637, -0.5125665068626404, -3.139664888381958, 0.5097872614860535, 0.3662109375, 0.3486328125, -0.760986328125, 
140, 663298665, 4.579226493835449, 3.231179714202881, 34.09632873535156, -0.993346631526947, 0.8341245055198669, 9.867605209350586, -0.5692251920700073, -2.9212777614593506, 0.5419331789016724, 0.3671875, 0.348876953125, -0.758544921875, 
141, 663306998, 4.577006816864014, 3.22438645362854, 34.12353515625, -1.0014569759368896, 0.8373965620994568, 9.848735809326172, -0.5333141088485718, -3.0807268619537354, 0.5664203763008118, 0.36572265625, 0.3486328125, -0.757568359375, 
142, 663315331, 4.572500228881836, 3.200049638748169, 34.126163482666016, -0.9857165813446045, 0.83466637134552, 9.85216999053955, -0.5645633935928345, -2.9966604709625244, 0.4988756477832794, 0.36376953125, 0.349609375, -0.759033203125, 
143, 663323664, 4.570067405700684, 3.1948578357696533, 34.152931213378906, -0.9979299306869507, 0.8356104493141174, 9.905198097229004, -0.5580317378044128, -2.916308641433716, 0.48417311906814575, 0.365234375, 0.349609375, -0.759521484375, 
144, 663331997, 4.565091609954834, 3.171346664428711, 34.15597915649414, -0.997823178768158, 0.8387722969055176, 9.871125221252441, -0.623219907283783, -2.898071527481079, 0.5405756235122681, 0.36083984375, 0.3515625, -0.760009765625, 
145, 663340330, 4.563381671905518, 3.1656744480133057, 34.180633544921875, -1.0130804777145386, 0.8492752313613892, 9.880348205566406, -0.4751439690589905, -2.992459774017334, 0.5237470865249634, 0.361328125, 0.3466796875, -0.760498046875, 
146, 663348663, 4.559093475341797, 3.141808032989502, 34.18406295776367, -1.0212501287460327, 0.8430627584457397, 9.912879943847656, -0.5432522892951965, -2.943049669265747, 0.5852980613708496, 0.36181640625, 0.3505859375, -0.758056640625, 
147, 663356996, 4.555973052978516, 3.1347763538360596, 34.208003997802734, -1.0062719583511353, 0.8405613899230957, 9.885061264038086, -0.6512163281440735, -3.1753711700439453, 0.5897805690765381, 0.35888671875, 0.349609375, -0.759521484375, 
148, 663365329, 4.551138401031494, 3.1088709831237793, 34.21158981323242, -1.020777940750122, 0.8274382948875427, 9.850126266479492, -0.6108481884002686, -3.190509080886841, 0.6211580038070679, 0.3623046875, 0.3505859375, -0.759521484375, 
149, 663373662, 4.548766613006592, 3.101748466491699, 34.23088836669922, -1.0099143981933594, 0.8298285007476807, 9.912665367126465, -0.5646145343780518, -3.2120251655578613, 0.5866812467575073, 0.36376953125, 0.3505859375, -0.759521484375, 
150, 663381995, 4.543361663818359, 3.0754852294921875, 34.234798431396484, -0.9845291376113892, 0.8547500967979431, 9.86422061920166, -0.680288553237915, -3.2362053394317627, 0.6611675024032593, 0.36181640625, 0.34912109375, -0.759521484375, 
151, 663390328, 4.540971279144287, 3.06860613822937, 34.26031494140625, -0.992559552192688, 0.843097984790802, 9.867432594299316, -0.5722731947898865, -3.204033374786377, 0.6476430892944336, 0.36376953125, 0.34765625, -0.760986328125, 
152, 663398661, 4.536581516265869, 3.043912887573242, 34.26292419433594, -0.9731184840202332, 0.8239943981170654, 9.844756126403809, -0.5491436123847961, -3.0658187866210938, 0.4882713258266449, 0.361328125, 0.3505859375, -0.759033203125, 
153, 663406994, 4.534422397613525, 3.040689468383789, 34.28623580932617, -0.9942123293876648, 0.8529744148254395, 9.858128547668457, -0.5438927412033081, -2.800199508666992, 0.4940345883369446, 0.36376953125, 0.35009765625, -0.759033203125, 
154, 663415327, 4.530629634857178, 3.017134666442871, 34.28972244262695, -0.9869480729103088, 0.8209195137023926, 9.865682601928711, -0.48418593406677246, -2.9256067276000977, 0.5816096067428589, 0.36328125, 0.349609375, -0.758544921875, 
155, 663423660, 4.529361248016357, 3.0127618312835693, 34.3140869140625, -1.0099843740463257, 0.8260086178779602, 9.893895149230957, -0.4450473189353943, -2.953782081604004, 0.5800983905792236, 0.36181640625, 0.35009765625, -0.761474609375, 
156, 663431993, 4.525540828704834, 2.9883615970611572, 34.31707763671875, -1.0027047395706177, 0.8311534523963928, 9.859312057495117, -0.4852616786956787, -3.038642168045044, 0.5287162065505981, 0.36376953125, 0.35107421875, -0.758056640625, 
157, 663440326, 4.522946834564209, 2.9828343391418457, 34.33927536010742, -1.0197962522506714, 0.8270336985588074, 9.868703842163086, -0.5976313352584839, -3.124654769897461, 0.47671934962272644, 0.3623046875, 0.3515625, -0.760498046875, 
158, 663448659, 4.519082546234131, 2.9573190212249756, 34.342498779296875, -1.0150151252746582, 0.8407871723175049, 9.895044326782227, -0.4914091229438782, -3.176600694656372, 0.5644737482070923, 0.3642578125, 0.353515625, -0.760009765625, 
159, 663456992, 4.516634464263916, 2.950382709503174, 34.36394119262695, -1.003536343574524, 0.8143942952156067, 9.894824981689453, -0.5834153890609741, -3.321730375289917, 0.4983889162540436, 0.3623046875, 0.3505859375, -0.758056640625, 
160, 663465325, 4.51161527633667, 2.9235446453094482, 34.367469787597656, -1.0049872398376465, 0.8266088366508484, 9.883092880249023, -0.6334913372993469, -3.3366386890411377, 0.6100926995277405, 0.35986328125, 0.3505859375, -0.759521484375, 
161, 663473658, 4.509454727172852, 2.9171531200408936, 34.39213562011719, -0.9879521131515503, 0.8402218222618103, 9.89574146270752, -0.5614129304885864, -3.2671213150024414, 0.725817859172821, 0.36279296875, 0.34765625, -0.758056640625, 
162, 663481991, 4.505805969238281, 2.89146089553833, 34.394866943359375, -0.9969305396080017, 0.8306866884231567, 9.884385108947754, -0.4628748297691345, -3.214406728744507, 0.5024872422218323, 0.361328125, 0.3525390625, -0.758056640625, 
163, 663490324, 4.503416538238525, 2.8866093158721924, 34.4199104309082, -0.9976423978805542, 0.8263909816741943, 9.887137413024902, -0.5897933840751648, -3.115664482116699, 0.6406248211860657, 0.365234375, 0.349609375, -0.756591796875, 
164, 663498657, 4.49946403503418, 2.8623909950256348, 34.42345428466797, -0.9951552152633667, 0.8308548927307129, 9.930129051208496, -0.5044722557067871, -3.035670757293701, 0.5835562348365784, 0.36328125, 0.3486328125, -0.756103515625, 
165, 663506990, 4.498098850250244, 2.8569161891937256, 34.450443267822266, -1.0115814208984375, 0.8143248558044434, 9.902668952941895, -0.4666401743888855, -3.219888687133789, 0.6207225322723389, 0.36572265625, 0.35009765625, -0.760986328125, 
166, 663515323, 4.494201183319092, 2.8308324813842773, 34.4538688659668, -1.0006773471832275, 0.8194583058357239, 9.864202499389648, -0.4979151487350464, -3.2671213150024414, 0.5839918255805969, 0.36572265625, 0.34912109375, -0.759521484375, 
167, 663523656, 4.493136882781982, 2.8269054889678955, 34.480037689208984, -0.9881175756454468, 0.8406909704208374, 9.864346504211426, -0.42460715770721436, -3.0751423835754395, 0.450720876455307, 0.36328125, 0.349609375, -0.760498046875, 
168, 663531989, 4.48896598815918, 2.802053451538086, 34.483367919921875, -0.994989812374115, 0.8201056718826294, 9.865545272827148, -0.5290108323097229, -3.1273701190948486, 0.5596070289611816, 0.365234375, 0.3505859375, -0.760009765625, 
169, 663540322, 4.487480640411377, 2.798891067504883, 34.507110595703125, -0.9933067560195923, 0.8340746164321899, 9.871960639953613, -0.4783714711666107, -3.0107743740081787, 0.44982442259788513, 0.3642578125, 0.3515625, -0.760986328125, 
170, 663548655, 4.483654022216797, 2.7743544578552246, 34.51036071777344, -1.0100270509719849, 0.8100346922874451, 9.866538047790527, -0.4900771379470825, -3.098144054412842, 0.5434187650680542, 0.3603515625, 0.35498046875, -0.760986328125, 
171, 663556988, 4.482380390167236, 2.7711119651794434, 34.53443145751953, -0.992851197719574, 0.8218992948532104, 9.884529113769531, -0.45549795031547546, -3.0503995418548584, 0.4553314745426178, 0.3642578125, 0.3515625, -0.760498046875, 
172, 663565321, 4.47895622253418, 2.7471060752868652, 34.538272857666016, -1.0083895921707153, 0.8106080293655396, 9.890193939208984, -0.44435572624206543, -3.0348260402679443, 0.6075312495231628, 0.3623046875, 0.35205078125, -0.758544921875, 
173, 663573654, 4.4781813621521, 2.742602586746216, 34.56163787841797, -1.0234519243240356, 0.8233579397201538, 9.875839233398438, -0.40063226222991943, -3.2252423763275146, 0.5474658608436584, 0.36474609375, 0.34912109375, -0.758056640625, 
174, 663581987, 4.475646495819092, 2.7173681259155273, 34.565269470214844, -0.9863848686218262, 0.81130051612854, 9.891995429992676, -0.33628925681114197, -3.1915078163146973, 0.5909587740898132, 0.3603515625, 0.35107421875, -0.758056640625, 
175, 663590320, 4.47578239440918, 2.7137608528137207, 34.590484619140625, -1.0053772926330566, 0.8499841690063477, 9.865421295166016, -0.29663848876953125, -3.1444294452667236, 0.6289703845977783, 0.36181640625, 0.35205078125, -0.755615234375, 
176, 663598653, 4.472508907318115, 2.6889359951019287, 34.59415817260742, -0.9726167321205139, 0.8235527276992798, 9.855984687805176, -0.42463281750679016, -3.1498594284057617, 0.589883029460907, 0.3623046875, 0.3505859375, -0.759033203125, 
177, 663606986, 4.472038745880127, 2.6856987476348877, 34.61716842651367, -0.9782981872558594, 0.8268257975578308, 9.864734649658203, -0.37240540981292725, -3.130751371383667, 0.6190064549446106, 0.36328125, 0.34765625, -0.759033203125, 
178, 663615319, 4.468717575073242, 2.6620779037475586, 34.61983871459961, -1.0088634490966797, 0.7903971672058105, 9.845744132995605, -0.4259135127067566, -3.0229408740997314, 0.4560486376285553, 0.36083984375, 0.349609375, -0.758544921875, 
179, 663623652, 4.468618392944336, 2.6605591773986816, 34.6444206237793, -0.9711763858795166, 0.8150650262832642, 9.843716621398926, -0.326504647731781, -2.9599809646606445, 0.506329357624054, 0.36328125, 0.3505859375, -0.760009765625, 
180, 663631985, 4.466491222381592, 2.637402296066284, 34.64818572998047, -0.9979445934295654, 0.8294768929481506, 9.887358665466309, -0.2890309989452362, -2.96392560005188, 0.5802520513534546, 0.36279296875, 0.35009765625, -0.761474609375, 
181, 663640318, 4.4676618576049805, 2.635733127593994, 34.67289733886719, -0.9877173900604248, 0.8201278448104858, 9.872519493103027, -0.17773717641830444, -3.0041911602020264, 0.580277681350708, 0.36328125, 0.34765625, -0.756103515625, 
182, 663648651, 4.466232776641846, 2.612380027770996, 34.676361083984375, -1.0041530132293701, 0.8404950499534607, 9.86209774017334, -0.20386368036270142, -2.9989147186279297, 0.543674886226654, 0.361328125, 0.353515625, -0.758056640625, 
183, 663656984, 4.466338634490967, 2.6109304428100586, 34.703880310058594, -0.9993053078651428, 0.8438136577606201, 9.868064880371094, -0.31095683574676514, -3.0035767555236816, 0.6499484181404114, 0.36181640625, 0.349609375, -0.757568359375, 
184, 663665317, 4.465513229370117, 2.5881175994873047, 34.707550048828125, -0.9789847731590271, 0.839946985244751, 9.839573860168457, -0.13214384019374847, -2.9389262199401855, 0.5605803728103638, 0.36376953125, 0.35107421875, -0.760009765625, 
185, 663673650, 4.466001510620117, 2.586092472076416, 34.73041915893555, -0.9972509145736694, 0.81183260679245, 9.926172256469727, -0.2627764344215393, -3.11971116065979, 0.4947773516178131, 0.3603515625, 0.3505859375, -0.759521484375, 
186, 663681983, 4.464321613311768, 2.563441753387451, 34.73356246948242, -1.0112330913543701, 0.8267377614974976, 9.899053573608398, -0.23342251777648926, -2.932957887649536, 0.49441877007484436, 0.3671875, 0.349853515625, -0.759521484375, 
187, 663690316, 4.465152263641357, 2.563386917114258, 34.7542839050293, -1.0022331476211548, 0.813843846321106, 9.871405601501465, -0.22471365332603455, -2.914823055267334, 0.4645780920982361, 0.36376953125, 0.34912109375, -0.759521484375, 
188, 663698649, 4.463796138763428, 2.5403892993927, 34.75790023803711, -0.9978774785995483, 0.8246205449104309, 9.871946334838867, -0.1968453824520111, -2.979524612426758, 0.5516921877861023, 0.3642578125, 0.35400390625, -0.757568359375, 
189, 663706982, 4.464655876159668, 2.5397984981536865, 34.78308868408203, -1.006978988647461, 0.8155096173286438, 9.867962837219238, -0.22919617593288422, -3.0041658878326416, 0.6038684248924255, 0.3642578125, 0.35009765625, -0.760498046875, 
190, 663715315, 4.4629340171813965, 2.5158472061157227, 34.78699493408203, -1.001376748085022, 0.8150969743728638, 9.883010864257812, -0.24359136819839478, -3.099194288253784, 0.5924956798553467, 0.36328125, 0.3486328125, -0.759033203125, 
191, 663723648, 4.4629058837890625, 2.515061616897583, 34.81187057495117, -1.0088850259780884, 0.8260707855224609, 9.869987487792969, -0.3364429473876953, -3.0624125003814697, 0.6017424464225769, 0.3603515625, 0.3486328125, -0.757568359375, 
192, 663731981, 4.460761547088623, 2.491081953048706, 34.815608978271484, -1.0077792406082153, 0.8365572690963745, 9.892950057983398, -0.2939489483833313, -3.1118221282958984, 0.5700576305389404, 0.36376953125, 0.35205078125, -0.760986328125, 
193, 663740314, 4.4618682861328125, 2.4904072284698486, 34.83808517456055, -1.0031095743179321, 0.8232388496398926, 9.917193412780762, -0.2016608715057373, -3.088078022003174, 0.5742839574813843, 0.3642578125, 0.35009765625, -0.757080078125, 
194, 663748647, 4.459438323974609, 2.467175006866455, 34.84196853637695, -1.015622854232788, 0.8140877485275269, 9.913596153259277, -0.32898926734924316, -3.0296263694763184, 0.5786640644073486, 0.36376953125, 0.349609375, -0.758544921875, 
195, 663756980, 4.460724353790283, 2.466294288635254, 34.86606216430664, -1.0033074617385864, 0.8525445461273193, 9.87330436706543, -0.18526776134967804, -3.144275426864624, 0.6208250522613525, 0.36083984375, 0.35205078125, -0.760498046875, 
196, 663765313, 4.459012985229492, 2.442500352859497, 34.86976623535156, -0.9801317453384399, 0.8318039178848267, 9.879243850708008, -0.24190081655979156, -3.1074161529541016, 0.5595812797546387, 0.36279296875, 0.35009765625, -0.756591796875, 
197, 663773646, 4.460054874420166, 2.443542718887329, 34.89101028442383, -0.995959460735321, 0.8555859923362732, 9.892889976501465, -0.22140946984291077, -2.948941230773926, 0.6562751531600952, 0.361328125, 0.3505859375, -0.760009765625, 
198, 663781979, 4.457882881164551, 2.4206347465515137, 34.89413070678711, -1.013762354850769, 0.8226446509361267, 9.898706436157227, -0.2940770387649536, -3.014770030975342, 0.4787684679031372, 0.36181640625, 0.34912109375, -0.758544921875, 
199, 663790312, 4.457981586456299, 2.4212865829467773, 34.916343688964844, -1.0074838399887085, 0.831785261631012, 9.85865592956543, -0.33283138275146484, -3.043867826461792, 0.4623497724533081, 0.3642578125, 0.35205078125, -0.757568359375, 
200, 663798645, 4.456226825714111, 2.398671865463257, 34.918643951416016, -0.9828685522079468, 0.8347647786140442, 9.857304573059082, -0.24133731424808502, -2.998300075531006, 0.3746722340583801, 0.365234375, 0.353515625, -0.758056640625, 
201, 663806978, 4.4566755294799805, 2.400940418243408, 34.94196319580078, -1.0275449752807617, 0.8333938717842102, 9.864188194274902, -0.2939489483833313, -2.883624792098999, 0.49260014295578003, 0.3662109375, 0.35205078125, -0.760009765625, 
202, 663815311, 4.455014228820801, 2.378121852874756, 34.94631576538086, -1.0195033550262451, 0.8383353352546692, 9.886390686035156, -0.2398516982793808, -3.0127975940704346, 0.6207225918769836, 0.36328125, 0.34912109375, -0.759033203125, 
203, 663823644, 4.455592632293701, 2.3791732788085938, 34.972164154052734, -0.9989681243896484, 0.8341272473335266, 9.883451461791992, -0.2897482216358185, -3.059953451156616, 0.6146008372306824, 0.36279296875, 0.353515625, -0.758056640625, 
204, 663831977, 4.453350067138672, 2.3562474250793457, 34.976524353027344, -1.0199087858200073, 0.819532036781311, 9.889861106872559, -0.3090101480484009, -3.0335707664489746, 0.6189039945602417, 0.3623046875, 0.35009765625, -0.759521484375, 
205, 663840310, 4.453882217407227, 2.356825351715088, 34.996944427490234, -1.033421516418457, 0.8304657936096191, 9.894011497497559, -0.298072874546051, -3.159797430038452, 0.5619378685951233, 0.36083984375, 0.3505859375, -0.759033203125, 
206, 663848643, 4.451911449432373, 2.331998825073242, 35.00088882446289, -1.0106923580169678, 0.8428780436515808, 9.870841026306152, -0.2749175727367401, -3.2734220027923584, 0.5865275263786316, 0.36376953125, 0.3505859375, -0.760986328125, 
207, 663856976, 4.4523210525512695, 2.332517623901367, 35.02157974243164, -0.9950152039527893, 0.84437096118927, 9.850101470947266, -0.3135182559490204, -3.208925724029541, 0.5575066804885864, 0.36376953125, 0.3486328125, -0.760009765625, 
208, 663865309, 4.4508957862854, 2.3082356452941895, 35.02558898925781, -0.995586633682251, 0.8276477456092834, 9.856438636779785, -0.21213708817958832, -3.2182490825653076, 0.5854261517524719, 0.36474609375, 0.349609375, -0.758056640625, 
209, 663873642, 4.451450347900391, 2.3100321292877197, 35.04961395263672, -0.9939721822738647, 0.8271601796150208, 9.8811616897583, -0.3021199107170105, -3.094097375869751, 0.5346587300300598, 0.3603515625, 0.349609375, -0.760986328125, 
210, 663881975, 4.449228286743164, 2.2870144844055176, 35.053653717041016, -0.9797893762588501, 0.8375650644302368, 9.884506225585938, -0.30657678842544556, -3.0762441158294678, 0.5743607878684998, 0.36328125, 0.34765625, -0.758056640625, 
211, 663890308, 4.450166702270508, 2.2901611328125, 35.07429504394531, -1.0088175535202026, 0.8014054894447327, 9.8676176071167, -0.2600613534450531, -2.9666919708251953, 0.5661130547523499, 0.36279296875, 0.349609375, -0.760009765625, 
212, 663898641, 4.448609828948975, 2.267911911010742, 35.0789794921875, -1.0105438232421875, 0.8121267557144165, 9.879837036132812, -0.23193690180778503, -2.988745927810669, 0.6418030261993408, 0.36181640625, 0.3505859375, -0.762451171875, 
213, 663906974, 4.448662757873535, 2.2705941200256348, 35.10342788696289, -1.0150096416473389, 0.8410807847976685, 9.898080825805664, -0.3717906177043915, -3.0515520572662354, 0.6466698050498962, 0.3583984375, 0.3505859375, -0.760498046875, 
214, 663915307, 4.445816516876221, 2.2476515769958496, 35.10629653930664, -0.9810622334480286, 0.8474025726318359, 9.897573471069336, -0.3780148923397064, -3.099578857421875, 0.43005022406578064, 0.36181640625, 0.3525390625, -0.761474609375, 
215, 663923640, 4.4454851150512695, 2.249789237976074, 35.125144958496094, -1.015106439590454, 0.8259741067886353, 9.86667537689209, -0.41536039113998413, -3.1686601638793945, 0.5169080495834351, 0.36279296875, 0.35009765625, -0.760986328125, 
216, 663931973, 4.4424729347229, 2.225254774093628, 35.12922668457031, -1.024262547492981, 0.843795895576477, 9.892685890197754, -0.4048585891723633, -3.287382125854492, 0.5846576690673828, 0.36279296875, 0.3525390625, -0.758056640625, 
217, 663940306, 4.4422607421875, 2.226677894592285, 35.15169143676758, -1.003584623336792, 0.8540785312652588, 9.8843994140625, -0.40711262822151184, -3.2889699935913086, 0.573284924030304, 0.36279296875, 0.3466796875, -0.760986328125, 
218, 663948639, 4.439088344573975, 2.2030394077301025, 35.15563201904297, -0.9964717030525208, 0.8277707099914551, 9.893597602844238, -0.4232240319252014, -3.191943645477295, 0.5615025162696838, 0.3623046875, 0.34814453125, -0.760498046875, 
219, 663956972, 4.438716888427734, 2.205463409423828, 35.18046569824219, -0.9883676171302795, 0.8292266130447388, 9.873544692993164, -0.4340844750404358, -3.208413600921631, 0.5767685770988464, 0.36328125, 0.34716796875, -0.758056640625, 
220, 663965305, 4.435385704040527, 2.1823058128356934, 35.18447494506836, -0.9969391226768494, 0.8309971690177917, 9.851508140563965, -0.44251155853271484, -3.1458890438079834, 0.5611182451248169, 0.3642578125, 0.3505859375, -0.759521484375, 
221, 663973638, 4.435599327087402, 2.1870925426483154, 35.20901107788086, -0.9700520038604736, 0.8406476974487305, 9.886707305908203, -0.3665909171104431, -2.964258909225464, 0.5352734923362732, 0.36376953125, 0.3505859375, -0.758544921875, 
222, 663981971, 4.43289852142334, 2.166827440261841, 35.21335983276367, -1.0073565244674683, 0.8447718024253845, 9.887564659118652, -0.3682558536529541, -2.806884765625, 0.5708004236221313, 0.3642578125, 0.34912109375, -0.761474609375, 
223, 663990304, 4.432646751403809, 2.1718413829803467, 35.23764419555664, -0.9946320652961731, 0.816288948059082, 9.910992622375488, -0.42650261521339417, -2.978320598602295, 0.49075591564178467, 0.35986328125, 0.35107421875, -0.759033203125, 
224, 663998637, 4.429564952850342, 2.150486469268799, 35.24162292480469, -0.9996019601821899, 0.8232877850532532, 9.908848762512207, -0.4141565263271332, -2.9507851600646973, 0.5345562696456909, 0.36376953125, 0.3525390625, -0.759033203125, 
225, 664006970, 4.4289751052856445, 2.154662609100342, 35.2623176574707, -1.0057915449142456, 0.8320829272270203, 9.914188385009766, -0.47281312942504883, -3.111361026763916, 0.5728238821029663, 0.36328125, 0.35107421875, -0.758056640625, 
226, 664015303, 4.426201343536377, 2.132025718688965, 35.26633834838867, -0.9722031950950623, 0.8148728013038635, 9.878303527832031, -0.377348929643631, -3.115459680557251, 0.5464668869972229, 0.365234375, 0.35205078125, -0.759033203125, 
227, 664023636, 4.426017761230469, 2.1367547512054443, 35.28984451293945, -1.0130884647369385, 0.8245846033096313, 9.86528491973877, -0.42857736349105835, -3.082468271255493, 0.5969781875610352, 0.36376953125, 0.34912109375, -0.760009765625, 
228, 664031969, 4.423093795776367, 2.1136138439178467, 35.29503631591797, -1.0156080722808838, 0.831161379814148, 9.903433799743652, -0.40001752972602844, -3.1752688884735107, 0.6884722709655762, 0.365234375, 0.35107421875, -0.760009765625, 
229, 664040302, 4.42294979095459, 2.1195895671844482, 35.31903839111328, -1.0119661092758179, 0.8490976691246033, 9.889601707458496, -0.4276040196418762, -2.972532033920288, 0.5959279537200928, 0.3642578125, 0.35009765625, -0.757568359375, 
230, 664048635, 4.419680118560791, 2.0973737239837646, 35.32307052612305, -0.9946914315223694, 0.8248348832130432, 9.860761642456055, -0.4382339417934418, -3.085413932800293, 0.5399864912033081, 0.3642578125, 0.34912109375, -0.757568359375, 
231, 664056968, 4.41932487487793, 2.1035006046295166, 35.34806442260742, -1.0256333351135254, 0.8230083584785461, 9.874245643615723, -0.4580337107181549, -2.9937918186187744, 0.6138579249382019, 0.36328125, 0.34765625, -0.758056640625, 
232, 664065301, 4.416550159454346, 2.081350326538086, 35.35271072387695, -1.0094717741012573, 0.8300954699516296, 9.829367637634277, -0.3819850981235504, -3.083159923553467, 0.6092730164527893, 0.36181640625, 0.3486328125, -0.760986328125, 
233, 664073634, 4.4173264503479, 2.0875725746154785, 35.3773307800293, -1.015742540359497, 0.8513321280479431, 9.879215240478516, -0.32028040289878845, -3.0339035987854004, 0.49626296758651733, 0.3642578125, 0.349609375, -0.758056640625, 
234, 664081967, 4.415051460266113, 2.066728353500366, 35.3816032409668, -1.0132609605789185, 0.8258678317070007, 9.831697463989258, -0.32143306732177734, -2.942307472229004, 0.5493870377540588, 0.3642578125, 0.34814453125, -0.760498046875, 
235, 664090300, 4.416001319885254, 2.0741286277770996, 35.405460357666016, -1.032550573348999, 0.8312512636184692, 9.851397514343262, -0.30670487880706787, -2.933905839920044, 0.486324667930603, 0.3623046875, 0.35107421875, -0.760009765625, 
236, 664098633, 4.413956642150879, 2.052500009536743, 35.40916442871094, -1.0248152017593384, 0.811944842338562, 9.904643058776855, -0.29156678915023804, -3.0522944927215576, 0.48476216197013855, 0.3642578125, 0.353515625, -0.758056640625, 
237, 664106966, 4.414312839508057, 2.05800724029541, 35.430789947509766, -1.015242099761963, 0.8577179908752441, 9.860941886901855, -0.38044825196266174, -3.2057242393493652, 0.47881975769996643, 0.36328125, 0.349609375, -0.755615234375, 
238, 664115299, 4.411067485809326, 2.0337018966674805, 35.434967041015625, -1.0093225240707397, 0.827704668045044, 9.879313468933105, -0.43823400139808655, -3.3797473907470703, 0.564627468585968, 0.36279296875, 0.349609375, -0.759033203125, 
239, 664123632, 4.4114484786987305, 2.0391743183135986, 35.45886993408203, -0.9997205138206482, 0.8236932158470154, 9.855374336242676, -0.3844696581363678, -3.248781681060791, 0.5329681634902954, 0.3662109375, 0.352783203125, -0.759521484375, 
240, 664131965, 4.408267974853516, 2.017045021057129, 35.46287536621094, -0.9776903390884399, 0.8245752453804016, 9.86137580871582, -0.4300117790699005, -3.133363723754883, 0.5197768807411194, 0.36376953125, 0.35107421875, -0.759521484375, 
241, 664140298, 4.409546375274658, 2.02414870262146, 35.48610305786133, -0.9913241863250732, 0.7934846878051758, 9.852426528930664, -0.27996358275413513, -3.0953524112701416, 0.4952896237373352, 0.36376953125, 0.3505859375, -0.758544921875, 
242, 664148631, 4.407275676727295, 2.002063751220703, 35.49128723144531, -1.0179933309555054, 0.7956154942512512, 9.854573249816895, -0.32709378004074097, -3.1287789344787598, 0.6569923162460327, 0.361328125, 0.35107421875, -0.760009765625, 
243, 664156964, 4.40858793258667, 2.0086796283721924, 35.51642608642578, -1.0098377466201782, 0.8247600197792053, 9.8329496383667, -0.2829860746860504, -3.1785471439361572, 0.6624225378036499, 0.36328125, 0.349609375, -0.760498046875, 
244, 664165297, 4.406384468078613, 1.9860756397247314, 35.52108383178711, -1.0113180875778198, 0.8387360572814941, 9.874889373779297, -0.31651511788368225, -3.2074146270751953, 0.596798837184906, 0.3603515625, 0.3505859375, -0.758056640625, 
245, 664173630, 4.407209396362305, 1.9915083646774292, 35.54491424560547, -1.0119798183441162, 0.8241445422172546, 9.848129272460938, -0.3425391614437103, -3.360485315322876, 0.6876013278961182, 0.3642578125, 0.34912109375, -0.760986328125, 
246, 664181963, 4.405248165130615, 1.9695565700531006, 35.54936981201172, -0.9907972812652588, 0.8451122641563416, 9.872958183288574, -0.2882882356643677, -3.145197868347168, 0.5627319812774658, 0.359375, 0.34765625, -0.760498046875, 
247, 664190296, 4.405690670013428, 1.9776126146316528, 35.57402801513672, -1.0290573835372925, 0.8221915364265442, 9.841167449951172, -0.3902072608470917, -3.0950191020965576, 0.5804057121276855, 0.36181640625, 0.3505859375, -0.762451171875, 
248, 664198629, 4.403697490692139, 1.9555760622024536, 35.578590393066406, -1.0177276134490967, 0.8137974739074707, 9.886838912963867, -0.2928219437599182, -3.163358211517334, 0.5727471113204956, 0.3603515625, 0.35009765625, -0.757568359375, 
249, 664206962, 4.405057430267334, 1.9635415077209473, 35.60102081298828, -1.005661129951477, 0.8081746697425842, 9.856922149658203, -0.28595730662345886, -3.1456069946289062, 0.6036890149116516, 0.36328125, 0.3486328125, -0.760498046875, 
250, 664215295, 4.403373718261719, 1.9408725500106812, 35.60600280761719, -1.0101346969604492, 0.805838406085968, 9.891597747802734, -0.25957465171813965, -3.2494983673095703, 0.6244878172874451, 0.3642578125, 0.3486328125, -0.759033203125, 
251, 664223628, 4.405124664306641, 1.9485620260238647, 35.62904357910156, -0.989074170589447, 0.843962550163269, 9.866804122924805, -0.23746956884860992, -3.2246527671813965, 0.5478500723838806, 0.36328125, 0.35009765625, -0.759033203125, 
252, 664231961, 4.404274940490723, 1.9264004230499268, 35.63447570800781, -0.9888035655021667, 0.8274274468421936, 9.863880157470703, -0.16101109981536865, -3.196784734725952, 0.6716436743736267, 0.3642578125, 0.3486328125, -0.760498046875, 
253, 664240294, 4.405911922454834, 1.9348077774047852, 35.65751647949219, -0.9978947639465332, 0.8474176526069641, 9.884714126586914, -0.2579609453678131, -3.1723997592926025, 0.6101438999176025, 0.36328125, 0.3515625, -0.759033203125, 
254, 664248627, 4.40438175201416, 1.9130395650863647, 35.662418365478516, -0.9957782030105591, 0.8256285190582275, 9.851994514465332, -0.240261510014534, -3.1659963130950928, 0.6026132702827454, 0.36376953125, 0.3505859375, -0.760009765625, 
255, 664256960, 4.4065985679626465, 1.9223723411560059, 35.68501281738281, -1.027402400970459, 0.833313524723053, 9.871634483337402, -0.1931825578212738, -3.102370262145996, 0.5821987390518188, 0.36279296875, 0.349609375, -0.762939453125, 
256, 664265293, 4.4043121337890625, 1.901009202003479, 35.69014358520508, -0.997093915939331, 0.8126092553138733, 9.844799995422363, -0.3323702812194824, -3.1291115283966064, 0.6214653849601746, 0.36474609375, 0.34912109375, -0.758056640625, 
257, 664273626, 4.4054412841796875, 1.909656286239624, 35.71310043334961, -0.997054398059845, 0.8265533447265625, 9.882901191711426, -0.33103832602500916, -3.2166097164154053, 0.6881392002105713, 0.36328125, 0.3505859375, -0.757568359375, 
258, 664281959, 4.403049468994141, 1.8879753351211548, 35.71748352050781, -0.9879440069198608, 0.8094576001167297, 9.891868591308594, -0.34320512413978577, -3.1859495639801025, 0.5330449938774109, 0.36474609375, 0.35107421875, -0.760986328125, 
259, 664290292, 4.405007839202881, 1.897156834602356, 35.74058151245117, -0.9832152128219604, 0.8260146379470825, 9.859399795532227, -0.23186005651950836, -3.2007036209106445, 0.5854517817497253, 0.36474609375, 0.3486328125, -0.761474609375, 
260, 664298625, 4.403723239898682, 1.876330852508545, 35.74630355834961, -1.0094654560089111, 0.8095616698265076, 9.896571159362793, -0.21656836569309235, -3.0849528312683105, 0.6821967363357544, 0.35888671875, 0.35107421875, -0.759521484375, 
261, 664306958, 4.4064741134643555, 1.8878101110458374, 35.770938873291016, -1.0013072490692139, 0.8348544836044312, 9.906241416931152, -0.13882915675640106, -2.957291841506958, 0.6126797795295715, 0.36572265625, 0.349609375, -0.759033203125, 
262, 664315291, 4.405090808868408, 1.8672391176223755, 35.77595901489258, -1.034846544265747, 0.8359963893890381, 9.868857383728027, -0.22676284611225128, -3.0728373527526855, 0.5925980806350708, 0.3642578125, 0.34912109375, -0.760498046875, 
263, 664323624, 4.406527996063232, 1.8773117065429688, 35.801170349121094, -0.9875586032867432, 0.8179779648780823, 9.891528129577637, -0.29996833205223083, -3.1629481315612793, 0.6752808690071106, 0.36376953125, 0.3486328125, -0.758056640625, 
264, 664331957, 4.405268669128418, 1.856035590171814, 35.80506896972656, -1.0074670314788818, 0.8440244197845459, 9.882485389709473, -0.20798759162425995, -3.180673122406006, 0.462631493806839, 0.3623046875, 0.34912109375, -0.759033203125, 
265, 664340290, 4.406859874725342, 1.8667378425598145, 35.82853317260742, -1.008365511894226, 0.8124766945838928, 9.903498649597168, -0.2834983766078949, -3.136206865310669, 0.5628087520599365, 0.36376953125, 0.349609375, -0.758544921875, 
266, 664348623, 4.405170917510986, 1.8456192016601562, 35.83235168457031, -1.0062509775161743, 0.8124666810035706, 9.883997917175293, -0.25988203287124634, -3.175140380859375, 0.446135938167572, 0.3642578125, 0.34716796875, -0.759033203125, 
267, 664356956, 4.40653133392334, 1.8566170930862427, 35.85456848144531, -1.019352674484253, 0.8216412663459778, 9.88867473602295, -0.31093117594718933, -3.145350933074951, 0.4921903610229492, 0.35986328125, 0.349609375, -0.760009765625, 
268, 664365289, 4.403988361358643, 1.8352928161621094, 35.85975646972656, -1.0388234853744507, 0.8254877924919128, 9.888525009155273, -0.36830708384513855, -3.199730157852173, 0.6103231906890869, 0.36279296875, 0.3505859375, -0.760009765625, 
269, 664373622, 4.406336307525635, 1.8463423252105713, 35.87979507446289, -1.0273245573043823, 0.8340663313865662, 9.897547721862793, -0.20214754343032837, -3.1629483699798584, 0.7136511206626892, 0.36181640625, 0.35009765625, -0.758056640625, 
270, 664381955, 4.405117988586426, 1.8262577056884766, 35.88507843017578, -0.9998412728309631, 0.8358169198036194, 9.843578338623047, -0.20934514701366425, -3.0636672973632812, 0.6063786149024963, 0.36328125, 0.35107421875, -0.760498046875, 
271, 664390288, 4.407993316650391, 1.837876558303833, 35.90576171875, -1.0116636753082275, 0.8211397528648376, 9.864307403564453, -0.13695931434631348, -3.1495261192321777, 0.5454167127609253, 0.36181640625, 0.34814453125, -0.761474609375, 
272, 664398621, 4.406565189361572, 1.8169007301330566, 35.91022872924805, -1.0238721370697021, 0.834577739238739, 9.83203125, -0.2329614758491516, -3.1909701824188232, 0.5150126218795776, 0.365234375, 0.349609375, -0.759521484375, 
273, 664406954, 4.408852577209473, 1.8282153606414795, 35.931419372558594, -0.9606723785400391, 0.8509917855262756, 9.854914665222168, -0.21206027269363403, -3.222834348678589, 0.5660617351531982, 0.36279296875, 0.34912109375, -0.761474609375, 
274, 664415287, 4.40683126449585, 1.8067846298217773, 35.936588287353516, -0.9958416223526001, 0.836709201335907, 9.878686904907227, -0.30708906054496765, -3.2532129287719727, 0.6014606952667236, 0.3671875, 0.350341796875, -0.760986328125, 
275, 664423620, 4.409616470336914, 1.8186219930648804, 35.95875549316406, -0.9918820858001709, 0.8382236957550049, 9.88670825958252, -0.15862895548343658, -3.1925837993621826, 0.6006665825843811, 0.3603515625, 0.349609375, -0.755126953125, 
276, 664431953, 4.408207893371582, 1.799229383468628, 35.96352767944336, -1.0113526582717896, 0.8110800385475159, 9.889894485473633, -0.2332688719034195, -3.0269877910614014, 0.5326608419418335, 0.36376953125, 0.34912109375, -0.758056640625, 
277, 664440286, 4.409328937530518, 1.8125518560409546, 35.982391357421875, -1.055017113685608, 0.8377858996391296, 9.87110424041748, -0.3611094653606415, -3.0537290573120117, 0.568571925163269, 0.36279296875, 0.3466796875, -0.758544921875, 
278, 664448619, 4.407967567443848, 1.7920503616333008, 35.986724853515625, -0.9995684623718262, 0.8160725831985474, 9.870238304138184, -0.2265835553407669, -3.174679756164551, 0.4851720929145813, 0.3662109375, 0.351318359375, -0.755615234375, 
279, 664456952, 4.409694194793701, 1.8048126697540283, 36.00851058959961, -1.0189610719680786, 0.8312349319458008, 9.853753089904785, -0.2867257595062256, -3.175191879272461, 0.4183957278728485, 0.3623046875, 0.3486328125, -0.759033203125, 
280, 664465285, 4.4084553718566895, 1.7851181030273438, 36.01306915283203, -1.020198106765747, 0.8232370615005493, 9.89553451538086, -0.21454481780529022, -3.0896403789520264, 0.5030763745307922, 0.35986328125, 0.35205078125, -0.756591796875, 
281, 664473618, 4.410938739776611, 1.7989720106124878, 36.034812927246094, -1.008304238319397, 0.8433892130851746, 9.863981246948242, -0.20119981467723846, -3.075040102005005, 0.5039473176002502, 0.36376953125, 0.3486328125, -0.760009765625, 
282, 664481951, 4.410168647766113, 1.7781181335449219, 36.039764404296875, -1.0119131803512573, 0.808229923248291, 9.894477844238281, -0.160114586353302, -3.238638401031494, 0.5592740178108215, 0.36376953125, 0.349609375, -0.760009765625, 
283, 664490284, 4.413216590881348, 1.7910717725753784, 36.06330871582031, -1.0205552577972412, 0.8141640424728394, 9.876498222351074, -0.1402379274368286, -3.212947368621826, 0.607479989528656, 0.36328125, 0.34814453125, -0.757080078125, 
284, 664498617, 4.412286758422852, 1.7698934078216553, 36.06813430786133, -1.0032931566238403, 0.8409205079078674, 9.897921562194824, -0.17824946343898773, -3.292633056640625, 0.5437005162239075, 0.36181640625, 0.35302734375, -0.762451171875, 
285, 664506950, 4.414443492889404, 1.7820494174957275, 36.092552185058594, -0.9948031902313232, 0.8523198366165161, 9.840851783752441, -0.24845808744430542, -3.3450400829315186, 0.6350153684616089, 0.36083984375, 0.3515625, -0.759521484375, 
286, 664515283, 4.412575721740723, 1.7618646621704102, 36.09708023071289, -0.9699543714523315, 0.8383404612541199, 9.868087768554688, -0.291976660490036, -3.1891257762908936, 0.49441877007484436, 0.3623046875, 0.3486328125, -0.760986328125, 
287, 664523616, 4.414172172546387, 1.7768752574920654, 36.114559173583984, -1.0216103792190552, 0.8284663558006287, 9.862991333007812, -0.31930702924728394, -3.0430221557617188, 0.5514616370201111, 0.36279296875, 0.35107421875, -0.761474609375, 
288, 664531949, 4.412965297698975, 1.7579116821289062, 36.11886978149414, -0.9981806874275208, 0.8373370170593262, 9.824155807495117, -0.21259814500808716, -3.0601327419281006, 0.4539226293563843, 0.36376953125, 0.35009765625, -0.761474609375, 
289, 664540282, 4.415096759796143, 1.7724531888961792, 36.138763427734375, -0.9941256046295166, 0.8257496953010559, 9.852176666259766, -0.2610090374946594, -3.1267294883728027, 0.652228057384491, 0.36083984375, 0.34912109375, -0.760009765625, 
290, 664548615, 4.413575172424316, 1.754066824913025, 36.14391326904297, -1.0329744815826416, 0.8182785511016846, 9.928629875183105, -0.25340163707733154, -2.9963018894195557, 0.5458521842956543, 0.359375, 0.3486328125, -0.760498046875, 
291, 664556948, 4.416131019592285, 1.7680819034576416, 36.163818359375, -1.0142465829849243, 0.8255559206008911, 9.884746551513672, -0.2120090276002884, -3.2257540225982666, 0.6170341372489929, 0.3583984375, 0.3505859375, -0.759033203125, 
292, 664565281, 4.4143385887146, 1.7477593421936035, 36.17023468017578, -0.9974349737167358, 0.8450897932052612, 9.889457702636719, -0.29254016280174255, -3.2304673194885254, 0.7160844206809998, 0.36181640625, 0.35205078125, -0.760498046875, 
293, 664573614, 4.416403770446777, 1.7625439167022705, 36.184844970703125, -1.0311470031738281, 0.8222120404243469, 9.868966102600098, -0.2714596688747406, -3.1770105361938477, 0.5556623935699463, 0.36279296875, 0.34716796875, -0.760009765625, 
294, 664581947, 4.414797306060791, 1.7423028945922852, 36.18924331665039, -1.0103079080581665, 0.8156712055206299, 9.89487075805664, -0.2633911669254303, -3.252162456512451, 0.47075119614601135, 0.36572265625, 0.35107421875, -0.759033203125, 
295, 664590280, 4.415897369384766, 1.7575745582580566, 36.21150207519531, -1.001676321029663, 0.8121677041053772, 9.843057632446289, -0.3890802264213562, -3.15580153465271, 0.5375275015830994, 0.36328125, 0.3515625, -0.757080078125, 
296, 664598613, 4.4140191078186035, 1.7385201454162598, 36.21734619140625, -1.0115628242492676, 0.8323104977607727, 9.842195510864258, -0.30165886878967285, -3.111643075942993, 0.630507230758667, 0.3662109375, 0.345703125, -0.758056640625, 
297, 664606946, 4.415831565856934, 1.7544339895248413, 36.235836029052734, -1.0135078430175781, 0.828023374080658, 9.876785278320312, -0.30614131689071655, -3.1063919067382812, 0.5881156325340271, 0.36474609375, 0.3515625, -0.761474609375, 
298, 664615279, 4.414261341094971, 1.7364352941513062, 36.24031448364258, -0.988908052444458, 0.8422329425811768, 9.84520435333252, -0.2614445090293884, -3.0123367309570312, 0.45592063665390015, 0.36572265625, 0.3486328125, -0.759521484375, 
299, 664623612, 4.415379047393799, 1.7540919780731201, 36.259883880615234, -1.0191056728363037, 0.8371524214744568, 9.85038948059082, -0.3895925283432007, -2.9403605461120605, 0.49160122871398926, 0.35986328125, 0.3505859375, -0.755126953125, 
300, 664631945, 4.413146018981934, 1.7382503747940063, 36.26542663574219, -1.011528491973877, 0.8564865589141846, 9.880013465881348, -0.3447932302951813, -2.7574238777160645, 0.5588642358779907, 0.3623046875, 0.35107421875, -0.760498046875, 
301, 664640278, 4.414283752441406, 1.756522536277771, 36.280757904052734, -1.0230867862701416, 0.8343417048454285, 9.882590293884277, -0.392205148935318, -2.9008374214172363, 0.47075119614601135, 0.365234375, 0.34765625, -0.757568359375, 
302, 664648611, 4.412074089050293, 1.7380517721176147, 36.28652572631836, -1.0125436782836914, 0.8246594667434692, 9.878291130065918, -0.3439479470252991, -3.0849273204803467, 0.6073519587516785, 0.36083984375, 0.349609375, -0.760498046875, 
303, 664656944, 4.4146647453308105, 1.7546772956848145, 36.30988693237305, -1.0093697309494019, 0.8427038788795471, 9.879268646240234, -0.22481615841388702, -3.122605800628662, 0.6020498275756836, 0.36474609375, 0.3505859375, -0.759521484375, 
304, 664665277, 4.412837505340576, 1.73667573928833, 36.315086364746094, -1.0202401876449585, 0.8445401787757874, 9.887532234191895, -0.29768863320350647, -3.047274351119995, 0.5337622761726379, 0.36376953125, 0.35107421875, -0.757080078125, 
305, 664673610, 4.414832592010498, 1.7530043125152588, 36.336212158203125, -1.0141797065734863, 0.8408480882644653, 9.861799240112305, -0.3006342947483063, -3.187896490097046, 0.6578376293182373, 0.36474609375, 0.34912109375, -0.757568359375, 
306, 664681943, 4.412858486175537, 1.7338584661483765, 36.34200668334961, -1.00439453125, 0.8383848667144775, 9.87265682220459, -0.31702741980552673, -3.1923537254333496, 0.61296147108078, 0.36669921875, 0.3505859375, -0.760498046875, 
307, 664690276, 4.4141950607299805, 1.7508989572525024, 36.36292266845703, -1.016201376914978, 0.8404031991958618, 9.860745429992676, -0.38149839639663696, -3.1449413299560547, 0.5291004776954651, 0.36474609375, 0.34912109375, -0.759033203125, 
308, 664698609, 4.412935256958008, 1.7320696115493774, 36.36860275268555, -0.9977446794509888, 0.817394495010376, 9.884777069091797, -0.2310660183429718, -3.1704275608062744, 0.5922139286994934, 0.36474609375, 0.3515625, -0.760009765625, 
309, 664706942, 4.4151835441589355, 1.7513700723648071, 36.388668060302734, -0.994706392288208, 0.8262929916381836, 9.883869171142578, -0.27368810772895813, -2.910801649093628, 0.45423004031181335, 0.365234375, 0.349609375, -0.760009765625, 
310, 664715275, 4.4135355949401855, 1.7346463203430176, 36.39297866821289, -0.9929911494255066, 0.8389455676078796, 9.877493858337402, -0.27414917945861816, -2.9449968338012695, 0.4079963266849518, 0.3642578125, 0.34912109375, -0.757080078125, 
311, 664723608, 4.415188789367676, 1.7535232305526733, 36.4134521484375, -1.028228998184204, 0.8450372815132141, 9.885590553283691, -0.3490964472293854, -2.9859795570373535, 0.5166263580322266, 0.3623046875, 0.349609375, -0.760009765625, 
312, 664731941, 4.4137187004089355, 1.7359225749969482, 36.41816329956055, -1.0061838626861572, 0.8295904397964478, 9.883249282836914, -0.2555275857448578, -3.0607986450195312, 0.4600188434123993, 0.3662109375, 0.34814453125, -0.759521484375, 
313, 664740274, 4.416064262390137, 1.7536277770996094, 36.43513488769531, -1.014825463294983, 0.836992084980011, 9.882033348083496, -0.26807859539985657, -3.158081531524658, 0.509505569934845, 0.3642578125, 0.349609375, -0.760986328125, 
314, 664748607, 4.414639949798584, 1.7353932857513428, 36.44074249267578, -0.9816392660140991, 0.832507312297821, 9.863497734069824, -0.2536833882331848, -3.1423544883728027, 0.5694172978401184, 0.36669921875, 0.34814453125, -0.759521484375, 
315, 664756940, 4.416866302490234, 1.753612756729126, 36.45998001098633, -1.0060685873031616, 0.8381083011627197, 9.892369270324707, -0.28782713413238525, -3.120582103729248, 0.5704418420791626, 0.359375, 0.34912109375, -0.758544921875, 
316, 664765273, 4.415297985076904, 1.7359445095062256, 36.4655647277832, -1.0194602012634277, 0.838754415512085, 9.858491897583008, -0.2717670202255249, -3.089486598968506, 0.5596325993537903, 0.36328125, 0.3486328125, -0.761474609375, 
317, 664773606, 4.416956424713135, 1.7541241645812988, 36.47937774658203, -1.0065245628356934, 0.8505671620368958, 9.889416694641113, -0.35816386342048645, -3.1541624069213867, 0.5588642358779907, 0.36181640625, 0.35107421875, -0.758544921875, 
318, 664781939, 4.4151787757873535, 1.7354631423950195, 36.48445510864258, -1.008107304573059, 0.8267066478729248, 9.877442359924316, -0.2956138849258423, -3.2269582748413086, 0.5060732960700989, 0.36572265625, 0.3505859375, -0.758544921875, 
319, 664790272, 4.4167890548706055, 1.754372239112854, 36.499385833740234, -0.9875258803367615, 0.8369389176368713, 9.870275497436523, -0.3674105703830719, -3.09658145904541, 0.5567381978034973, 0.36474609375, 0.349609375, -0.760498046875, 
320, 664798605, 4.415467262268066, 1.7370566129684448, 36.50455856323242, -1.0039225816726685, 0.8410735726356506, 9.853575706481934, -0.24287419021129608, -3.078191041946411, 0.5033581852912903, 0.36474609375, 0.35009765625, -0.760009765625, 
321, 664806938, 4.416340351104736, 1.7579011917114258, 36.52236557006836, -0.9906137585639954, 0.8326910734176636, 9.87671184539795, -0.45403796434402466, -2.9020674228668213, 0.41675645112991333, 0.36376953125, 0.3505859375, -0.759033203125, 
322, 664815271, 4.413583755493164, 1.741837978363037, 36.528709411621094, -1.0172449350357056, 0.8094391226768494, 9.860991477966309, -0.4203808605670929, -2.9322664737701416, 0.6326844096183777, 0.361328125, 0.34814453125, -0.760009765625, 
323, 664823604, 4.4149041175842285, 1.762881875038147, 36.54481887817383, -1.0028504133224487, 0.8376030325889587, 9.886412620544434, -0.40526846051216125, -2.901503801345825, 0.4542812705039978, 0.36328125, 0.3515625, -0.758056640625, 
324, 664831937, 4.413316249847412, 1.7462542057037354, 36.550960540771484, -1.014561653137207, 0.8382938504219055, 9.842961311340332, -0.2802197337150574, -3.0146162509918213, 0.6084789633750916, 0.36279296875, 0.34912109375, -0.758056640625, 
325, 664840270, 4.415574550628662, 1.765857219696045, 36.5662841796875, -1.0058369636535645, 0.8484629392623901, 9.87073802947998, -0.2952297031879425, -3.0945842266082764, 0.5547147393226624, 0.36669921875, 0.35009765625, -0.760009765625, 
326, 664848603, 4.413382530212402, 1.7489567995071411, 36.57111740112305, -1.007934331893921, 0.8500143885612488, 9.87597942352295, -0.35019782185554504, -3.074989080429077, 0.4537689983844757, 0.36376953125, 0.34765625, -0.761962890625, 
327, 664856936, 4.4148454666137695, 1.7697839736938477, 36.59096145629883, -1.0089375972747803, 0.844524085521698, 9.853148460388184, -0.3953557312488556, -2.9718661308288574, 0.5780236721038818, 0.36376953125, 0.34912109375, -0.759033203125, 
328, 664865269, 4.412242889404297, 1.753515601158142, 36.59687423706055, -1.0016003847122192, 0.8306449055671692, 9.888113975524902, -0.4025788903236389, -3.001347780227661, 0.5750267505645752, 0.36279296875, 0.34814453125, -0.759033203125, 
329, 664873602, 4.41303825378418, 1.7752432823181152, 36.61425018310547, -0.9960638880729675, 0.8429499268531799, 9.881268501281738, -0.47944727540016174, -2.891719341278076, 0.560375452041626, 0.365234375, 0.34765625, -0.760986328125, 
330, 664881935, 4.410368919372559, 1.7592343091964722, 36.619388580322266, -1.0252717733383179, 0.8342029452323914, 9.88298225402832, -0.40985336899757385, -2.9923574924468994, 0.47702667117118835, 0.36328125, 0.3486328125, -0.760009765625, 
331, 664890268, 4.411293983459473, 1.780974268913269, 36.6387825012207, -1.0122125148773193, 0.8442793488502502, 9.889760971069336, -0.4650264382362366, -2.917948007583618, 0.5163701772689819, 0.3623046875, 0.35009765625, -0.758544921875, 
332, 664898601, 4.4088945388793945, 1.7662949562072754, 36.64501953125, -1.0036481618881226, 0.8308912515640259, 9.883809089660645, -0.38234370946884155, -2.8376219272613525, 0.5945960879325867, 0.36328125, 0.3505859375, -0.759033203125, 
333, 664906934, 4.4100260734558105, 1.7892338037490845, 36.658172607421875, -1.0019627809524536, 0.8306788206100464, 9.876882553100586, -0.4401549994945526, -2.807371139526367, 0.4134521782398224, 0.36376953125, 0.349609375, -0.761474609375, 
334, 664915267, 4.407060623168945, 1.774483561515808, 36.66421890258789, -1.0109622478485107, 0.813785195350647, 9.883118629455566, -0.45193761587142944, -2.8612124919891357, 0.5701600909233093, 0.36474609375, 0.35107421875, -0.759521484375, 
335, 664923600, 4.408069610595703, 1.798437476158142, 36.679935455322266, -1.0073199272155762, 0.8481791615486145, 9.882129669189453, -0.45913514494895935, -2.7011237144470215, 0.511170506477356, 0.36279296875, 0.35205078125, -0.760986328125, 
336, 664931933, 4.405019760131836, 1.7844061851501465, 36.685577392578125, -1.0233888626098633, 0.8441361784934998, 9.909687042236328, -0.4601341187953949, -2.793283700942993, 0.5154480338096619, 0.36474609375, 0.34765625, -0.757568359375, 
337, 664940266, 4.40701961517334, 1.8063364028930664, 36.69793701171875, -1.025996446609497, 0.8290863037109375, 9.909421920776367, -0.34609952569007874, -2.9600579738616943, 0.5956974625587463, 0.3642578125, 0.3515625, -0.759521484375, 
338, 664948599, 4.403834342956543, 1.7897899150848389, 36.70425796508789, -1.0129200220108032, 0.81718909740448, 9.921269416809082, -0.47975462675094604, -3.1031134128570557, 0.6163681149482727, 0.36376953125, 0.3515625, -0.762451171875, 
339, 664956932, 4.404353141784668, 1.8113934993743896, 36.71892166137695, -0.9982937574386597, 0.8273581266403198, 9.913005828857422, -0.5265774726867676, -3.0220699310302734, 0.6338627338409424, 0.36279296875, 0.34814453125, -0.758056640625, 
340, 664965265, 4.401022434234619, 1.795029640197754, 36.72599411010742, -1.0122889280319214, 0.8259377479553223, 9.879281044006348, -0.5007326602935791, -3.088871717453003, 0.7036357522010803, 0.36279296875, 0.3505859375, -0.759033203125, 
341, 664973598, 4.402575969696045, 1.815399169921875, 36.74074172973633, -1.0019307136535645, 0.8302022814750671, 9.916050910949707, -0.39876243472099304, -3.200601577758789, 0.5138344168663025, 0.35986328125, 0.34912109375, -0.760986328125, 
342, 664981931, 4.3996405601501465, 1.7987303733825684, 36.74650573730469, -1.0067672729492188, 0.826627254486084, 9.892053604125977, -0.44952982664108276, -3.150883913040161, 0.549489438533783, 0.36376953125, 0.349609375, -0.762451171875, 
343, 664990264, 4.400389671325684, 1.8206111192703247, 36.756893157958984, -1.0138500928878784, 0.8285977840423584, 9.864806175231934, -0.4990934133529663, -3.032341480255127, 0.6086838841438293, 0.36279296875, 0.345703125, -0.760009765625, 
344, 664998597, 4.396971702575684, 1.8041296005249023, 36.76375961303711, -1.0254507064819336, 0.8302484750747681, 9.86974048614502, -0.5131556391716003, -3.133082151412964, 0.677996039390564, 0.35888671875, 0.35107421875, -0.761474609375, 
345, 665006930, 4.398306369781494, 1.8266464471817017, 36.78004837036133, -1.0037349462509155, 0.8235760927200317, 9.873026847839355, -0.42688682675361633, -2.9833409786224365, 0.514602780342102, 0.36328125, 0.35009765625, -0.759521484375, 
346, 665015263, 4.395517349243164, 1.8098944425582886, 36.78571319580078, -1.0371925830841064, 0.8442918062210083, 9.8780517578125, -0.43475043773651123, -3.190714120864868, 0.5364773869514465, 0.36279296875, 0.3505859375, -0.760009765625, 
347, 665023596, 4.397410869598389, 1.830569863319397, 36.798927307128906, -1.0192058086395264, 0.8446997404098511, 9.915420532226562, -0.36431124806404114, -3.2157390117645264, 0.6408553719520569, 0.361328125, 0.3505859375, -0.758544921875, 
348, 665031929, 4.3948469161987305, 1.813029170036316, 36.80597686767578, -1.034188985824585, 0.8235962390899658, 9.866726875305176, -0.41425907611846924, -3.286357879638672, 0.708374559879303, 0.3623046875, 0.3505859375, -0.758544921875, 
349, 665040262, 4.395732879638672, 1.8329086303710938, 36.81600570678711, -1.0353446006774902, 0.8561617136001587, 9.870750427246094, -0.48892447352409363, -3.33561372756958, 0.6267931461334229, 0.35888671875, 0.34912109375, -0.761962890625, 
350, 665048595, 4.393147945404053, 1.8155176639556885, 36.82244873046875, -1.0077378749847412, 0.8326358199119568, 9.889449119567871, -0.41361871361732483, -3.287484884262085, 0.63432377576828, 0.3623046875, 0.3486328125, -0.761474609375, 
351, 665056928, 4.3937153816223145, 1.8366214036941528, 36.82984924316406, -1.012541651725769, 0.8382376432418823, 9.863847732543945, -0.5293181538581848, -3.2145862579345703, 0.5735411047935486, 0.36376953125, 0.35205078125, -0.757080078125, 
352, 665065261, 4.3908162117004395, 1.821080207824707, 36.835147857666016, -1.002772331237793, 0.8428180813789368, 9.871118545532227, -0.44789057970046997, -3.090024709701538, 0.4792807698249817, 0.365234375, 0.3466796875, -0.760986328125, 
353, 665073594, 4.391356945037842, 1.8428127765655518, 36.84574890136719, -1.0082217454910278, 0.8383845090866089, 9.90283489227295, -0.5327504873275757, -3.1586451530456543, 0.5612207055091858, 0.36376953125, 0.35009765625, -0.761474609375, 
354, 665081927, 4.388979911804199, 1.8258577585220337, 36.85127639770508, -1.0229508876800537, 0.8257880210876465, 9.889548301696777, -0.38818371295928955, -3.270707130432129, 0.5188803672790527, 0.36572265625, 0.35009765625, -0.761962890625, 
355, 665090260, 4.390726089477539, 1.8479465246200562, 36.864219665527344, -1.0071344375610352, 0.8488535284996033, 9.885053634643555, -0.39522767066955566, -3.124117136001587, 0.6885747313499451, 0.36376953125, 0.35107421875, -0.760986328125, 
356, 665098593, 4.3883466720581055, 1.8302488327026367, 36.87104797363281, -1.0189355611801147, 0.830517590045929, 9.891558647155762, -0.3944079875946045, -3.361023426055908, 0.6814540028572083, 0.36279296875, 0.35205078125, -0.758544921875, 
357, 665106926, 4.389816761016846, 1.8510818481445312, 36.882118225097656, -1.0188472270965576, 0.8376204967498779, 9.883792877197266, -0.4264258146286011, -3.2991650104522705, 0.6204664707183838, 0.36328125, 0.35205078125, -0.759521484375, 
358, 665115259, 4.386754989624023, 1.8345295190811157, 36.88795852661133, -1.0014708042144775, 0.8330219388008118, 9.882180213928223, -0.47401705384254456, -3.2469375133514404, 0.5525118708610535, 0.3662109375, 0.34765625, -0.761962890625, 
359, 665123592, 4.388674736022949, 1.8551280498504639, 36.89781188964844, -1.019895315170288, 0.8166155815124512, 9.891766548156738, -0.376759797334671, -3.3401987552642822, 0.6916996836662292, 0.36279296875, 0.349609375, -0.759033203125, 
360, 665131925, 4.385779857635498, 1.8385915756225586, 36.90412521362305, -0.9931700825691223, 0.8191356062889099, 9.888762474060059, -0.4565480947494507, -3.2544424533843994, 0.6069421172142029, 0.36181640625, 0.3505859375, -0.758056640625, 
361, 665140258, 4.387847423553467, 1.8613200187683105, 36.914249420166016, -0.9631304144859314, 0.823754608631134, 9.86107063293457, -0.3549876809120178, -3.115152359008789, 0.49621179699897766, 0.3623046875, 0.349609375, -0.760986328125, 
362, 665148591, 4.3845720291137695, 1.8463572263717651, 36.920467376708984, -1.0068550109863281, 0.8502759337425232, 9.86832046508789, -0.5018085241317749, -3.0809316635131836, 0.5844016075134277, 0.36376953125, 0.3505859375, -0.760009765625, 
363, 665156924, 4.386959552764893, 1.8698389530181885, 36.929954528808594, -1.0224435329437256, 0.8296667337417603, 9.907075881958008, -0.31964001059532166, -3.0292930603027344, 0.5696990489959717, 0.36083984375, 0.34765625, -0.762939453125, 
364, 665165257, 4.385030269622803, 1.8553045988082886, 36.935909271240234, -1.0072542428970337, 0.8453198075294495, 9.91352367401123, -0.34143775701522827, -3.0469157695770264, 0.5483367443084717, 0.365234375, 0.35009765625, -0.760009765625, 
365, 665173590, 4.387555122375488, 1.879324197769165, 36.9449577331543, -1.0167111158370972, 0.8145789504051208, 9.891584396362305, -0.30501431226730347, -2.98183012008667, 0.5590691566467285, 0.36376953125, 0.349609375, -0.759033203125, 
366, 665181923, 4.385260581970215, 1.8641966581344604, 36.95165252685547, -1.0117199420928955, 0.8196049928665161, 9.895755767822266, -0.38905462622642517, -3.1245009899139404, 0.6421360373497009, 0.36474609375, 0.3486328125, -0.758056640625, 
367, 665190256, 4.386962890625, 1.8866018056869507, 36.961360931396484, -1.017729640007019, 0.8357675671577454, 9.907673835754395, -0.399991899728775, -3.1999351978302, 0.4482106864452362, 0.3623046875, 0.35009765625, -0.757080078125, 
368, 665198589, 4.383757591247559, 1.8705862760543823, 36.96651077270508, -1.0132884979248047, 0.8317209482192993, 9.897012710571289, -0.4932277202606201, -3.257951498031616, 0.4654490649700165, 0.36328125, 0.34912109375, -0.759033203125, 
369, 665206922, 4.385704040527344, 1.893850564956665, 36.974769592285156, -1.0101920366287231, 0.8078369498252869, 9.869486808776855, -0.37396782636642456, -3.1043174266815186, 0.5439823865890503, 0.36279296875, 0.3505859375, -0.757080078125, 
370, 665215255, 4.3832221031188965, 1.877879023551941, 36.98047637939453, -1.0390470027923584, 0.8303079009056091, 9.878009796142578, -0.41041693091392517, -3.2616400718688965, 0.5308166146278381, 0.3642578125, 0.3515625, -0.760009765625, 
371, 665223588, 4.384474754333496, 1.9007991552352905, 36.988407135009766, -0.9958441853523254, 0.8289106488227844, 9.853382110595703, -0.45703479647636414, -3.1605660915374756, 0.5258474946022034, 0.36279296875, 0.3486328125, -0.759033203125, 
372, 665231921, 4.381654739379883, 1.8851853609085083, 36.99508285522461, -1.0040693283081055, 0.8230554461479187, 9.867109298706055, -0.4561639130115509, -3.2226295471191406, 0.6436729431152344, 0.36279296875, 0.3486328125, -0.758056640625, 
373, 665240254, 4.383703231811523, 1.908758521080017, 37.005550384521484, -1.027884840965271, 0.8470859527587891, 9.88054084777832, -0.3653357923030853, -3.0875141620635986, 0.6421360373497009, 0.3642578125, 0.34912109375, -0.761474609375, 
374, 665248587, 4.380652904510498, 1.8938390016555786, 37.01130294799805, -1.0063716173171997, 0.8423121571540833, 9.883584976196289, -0.47998514771461487, -3.1620261669158936, 0.5278966426849365, 0.36279296875, 0.35107421875, -0.763427734375, 
375, 665256920, 4.382108211517334, 1.918931007385254, 37.02075958251953, -0.9932717084884644, 0.8358139991760254, 9.890006065368652, -0.43236827850341797, -2.936262369155884, 0.4090977609157562, 0.36376953125, 0.35009765625, -0.759033203125, 
376, 665265253, 4.380240440368652, 1.9048808813095093, 37.02616882324219, -1.051522970199585, 0.8154726028442383, 9.88785457611084, -0.3380054235458374, -3.0734262466430664, 0.47866594791412354, 0.3662109375, 0.34912109375, -0.760986328125, 
377, 665273586, 4.381842613220215, 1.9284652471542358, 37.035308837890625, -1.0221720933914185, 0.8037819862365723, 9.852164268493652, -0.4227885603904724, -3.112898111343384, 0.6090680360794067, 0.3662109375, 0.34912109375, -0.759521484375, 
378, 665281919, 4.3790764808654785, 1.9137400388717651, 37.04289245605469, -1.0248627662658691, 0.8158237934112549, 9.883941650390625, -0.4560358226299286, -3.148271083831787, 0.7449003458023071, 0.365234375, 0.34814453125, -0.760009765625, 
379, 665290252, 4.381266117095947, 1.9373267889022827, 37.055419921875, -1.0079666376113892, 0.8151813745498657, 9.86931037902832, -0.348481684923172, -3.128727674484253, 0.577767550945282, 0.36376953125, 0.3505859375, -0.762451171875, 
380, 665298585, 4.378565311431885, 1.923185110092163, 37.06077575683594, -1.0172446966171265, 0.8257310390472412, 9.894814491271973, -0.44135886430740356, -3.113077163696289, 0.4724673628807068, 0.36181640625, 0.3525390625, -0.759521484375, 
381, 665306918, 4.380735397338867, 1.9458624124526978, 37.068111419677734, -1.012088418006897, 0.824988603591919, 9.910050392150879, -0.35158100724220276, -3.247577667236328, 0.6016143560409546, 0.36328125, 0.3505859375, -0.758056640625, 
382, 665315251, 4.377408027648926, 1.9310356378555298, 37.074668884277344, -1.0078884363174438, 0.8302106857299805, 9.895925521850586, -0.5217875838279724, -3.1973483562469482, 0.6219520568847656, 0.36474609375, 0.35205078125, -0.761474609375, 
383, 665323584, 4.378890037536621, 1.9535682201385498, 37.08218002319336, -1.00124192237854, 0.8249029517173767, 9.845756530761719, -0.43905362486839294, -3.2700672149658203, 0.6781753301620483, 0.36083984375, 0.3515625, -0.760986328125, 
384, 665331917, 4.376135349273682, 1.9388477802276611, 37.088653564453125, -1.0106080770492554, 0.8205544352531433, 9.88221263885498, -0.45191195607185364, -3.19852614402771, 0.6125003695487976, 0.36328125, 0.3486328125, -0.758544921875, 
385, 665340250, 4.378421306610107, 1.9615992307662964, 37.091087341308594, -0.9977996349334717, 0.8274319171905518, 9.86469554901123, -0.34328198432922363, -3.256593942642212, 0.6418799161911011, 0.3623046875, 0.3515625, -0.758544921875, 
386, 665348583, 4.376514434814453, 1.9474852085113525, 37.09765625, -0.9988390803337097, 0.8472775220870972, 9.870451927185059, -0.3531946837902069, -3.1361300945281982, 0.619236946105957, 0.3681640625, 0.352783203125, -0.760009765625, 
387, 665356916, 4.378732681274414, 1.971184253692627, 37.101402282714844, -1.0076841115951538, 0.8234745860099792, 9.87281322479248, -0.34812307357788086, -3.1571593284606934, 0.5692379474639893, 0.36083984375, 0.3486328125, -0.759033203125, 
388, 665365249, 4.376218795776367, 1.9580199718475342, 37.1070556640625, -1.0067249536514282, 0.8247559070587158, 9.883343696594238, -0.4229935109615326, -3.045071601867676, 0.5029227137565613, 0.365234375, 0.349609375, -0.759033203125, 
389, 665373582, 4.378519058227539, 1.9828453063964844, 37.11219024658203, -1.014527440071106, 0.8116070628166199, 9.900642395019531, -0.34151461720466614, -3.026193857192993, 0.6193137764930725, 0.3623046875, 0.34912109375, -0.761962890625, 
390, 665381915, 4.376286029815674, 1.9687970876693726, 37.1185417175293, -1.0280640125274658, 0.830288827419281, 9.891754150390625, -0.3934602737426758, -3.156903028488159, 0.5963378548622131, 0.3623046875, 0.3515625, -0.757568359375, 
391, 665390248, 4.378498077392578, 1.9920142889022827, 37.12467956542969, -1.015310287475586, 0.8298576474189758, 9.875882148742676, -0.35345080494880676, -3.222731828689575, 0.6875500679016113, 0.36083984375, 0.3486328125, -0.761474609375, 
392, 665398581, 4.37644100189209, 1.977332353591919, 37.13087844848633, -1.0162990093231201, 0.8207882642745972, 9.85676383972168, -0.3730457127094269, -3.24611759185791, 0.5837868452072144, 0.36572265625, 0.349609375, -0.759521484375, 
393, 665406914, 4.378776550292969, 1.9983906745910645, 37.135135650634766, -1.0348254442214966, 0.8448173403739929, 9.869462966918945, -0.33672475814819336, -3.492962121963501, 0.6669307351112366, 0.36474609375, 0.3525390625, -0.758544921875, 
394, 665415247, 4.375670433044434, 1.9825619459152222, 37.1417121887207, -1.0105713605880737, 0.8232167363166809, 9.886553764343262, -0.5020133256912231, -3.394551992416382, 0.6417261362075806, 0.3623046875, 0.3486328125, -0.759521484375, 
395, 665423580, 4.37782096862793, 2.004206657409668, 37.146541595458984, -1.0052040815353394, 0.8393478989601135, 9.87624454498291, -0.3591372072696686, -3.4345362186431885, 0.6086071133613586, 0.36279296875, 0.34912109375, -0.758544921875, 
396, 665431913, 4.375306606292725, 1.9885265827178955, 37.15434265136719, -1.0230649709701538, 0.8323704600334167, 9.875247955322266, -0.43582624197006226, -3.379183769226074, 0.7873944640159607, 0.361328125, 0.3505859375, -0.760009765625, 
397, 665440246, 4.3768229484558105, 2.008995294570923, 37.16093444824219, -1.0219659805297852, 0.8419915437698364, 9.934442520141602, -0.4404366910457611, -3.5729548931121826, 0.7364731431007385, 0.35986328125, 0.35205078125, -0.757568359375, 
398, 665448579, 4.375421524047852, 1.9920889139175415, 37.16728591918945, -0.9348870515823364, 0.8402413129806519, 9.843558311462402, -0.29684337973594666, -3.551260232925415, 0.6280738711357117, 0.3623046875, 0.34912109375, -0.760498046875, 
399, 665456912, 4.376820087432861, 2.016571283340454, 37.1642951965332, -0.9573612809181213, 0.8390467166900635, 9.834365844726562, -0.4489150941371918, -3.1218888759613037, 0.4175505042076111, 0.36083984375, 0.34814453125, -0.757080078125, 
400, 665465245, 4.374732494354248, 2.004577159881592, 37.17010498046875, -1.0008726119995117, 0.8085823655128479, 9.861700057983398, -0.3778612017631531, -2.980907917022705, 0.5194951295852661, 0.361328125, 0.349609375, -0.762939453125, 
401, 665473578, 4.375854969024658, 2.0300941467285156, 37.17306137084961, -0.9928381443023682, 0.8115665912628174, 9.861581802368164, -0.48416027426719666, -2.993561267852783, 0.47651439905166626, 0.36669921875, 0.350341796875, -0.758056640625, 
402, 665481911, 4.373656272888184, 2.0179505348205566, 37.1781005859375, -1.0151755809783936, 0.829718828201294, 9.895429611206055, -0.38995108008384705, -3.016178607940674, 0.4313565492630005, 0.3603515625, 0.35205078125, -0.762451171875, 
403, 665490244, 4.376421928405762, 2.0427889823913574, 37.1860466003418, -1.022325873374939, 0.8608460426330566, 9.898808479309082, -0.28552189469337463, -3.070685625076294, 0.5907283425331116, 0.36279296875, 0.35302734375, -0.758544921875, 
404, 665498577, 4.374349594116211, 2.0292115211486816, 37.19166564941406, -1.000861406326294, 0.8088738322257996, 9.879948616027832, -0.378603994846344, -3.196810245513916, 0.5157297849655151, 0.361328125, 0.34765625, -0.760986328125, 
405, 665506910, 4.3763861656188965, 2.0539073944091797, 37.19251251220703, -1.0159575939178467, 0.8274217247962952, 9.880911827087402, -0.37898823618888855, -3.092381000518799, 0.5992066264152527, 0.36474609375, 0.34912109375, -0.758056640625, 
406, 665515243, 4.3748345375061035, 2.0396857261657715, 37.19911575317383, -1.0125283002853394, 0.8381856083869934, 9.8743896484375, -0.322508841753006, -3.278263568878174, 0.6381402611732483, 0.361328125, 0.3466796875, -0.760009765625, 
407, 665523576, 4.377943992614746, 2.0634922981262207, 37.206146240234375, -1.0135557651519775, 0.8165689706802368, 9.847542762756348, -0.24761278927326202, -3.200652599334717, 0.6500508785247803, 0.365234375, 0.35205078125, -0.760498046875, 
408, 665531909, 4.3765034675598145, 2.048567771911621, 37.214134216308594, -1.0313745737075806, 0.8048608303070068, 9.919078826904297, -0.3156186044216156, -3.3594095706939697, 0.8145454525947571, 0.36474609375, 0.3525390625, -0.759033203125, 
409, 665540242, 4.380966663360596, 2.069763660430908, 37.21955108642578, -1.0243042707443237, 0.8438451290130615, 9.875396728515625, -0.092928446829319, -3.5067427158355713, 0.8283259868621826, 0.36376953125, 0.35107421875, -0.761962890625, 
410, 665548575, 4.382904529571533, 2.0548064708709717, 37.22749710083008, -0.9960950613021851, 0.8564527630805969, 9.847635269165039, 0.08886860311031342, -3.376417398452759, 0.8108827471733093, 0.3642578125, 0.3515625, -0.758544921875, 
411, 665556908, 4.3881611824035645, 2.077202320098877, 37.23091125488281, -0.9911826848983765, 0.8020176291465759, 9.828134536743164, 0.0034451144747436047, -3.3713455200195312, 0.7778659462928772, 0.36328125, 0.34814453125, -0.756591796875, 
412, 665565241, 4.387614727020264, 2.063865900039673, 37.237083435058594, -0.9670764207839966, 0.8994671702384949, 9.872156143188477, -0.20309527218341827, -3.211000680923462, 0.5850163102149963, 0.36083984375, 0.34716796875, -0.758544921875, 
413, 665573574, 4.390256404876709, 2.0894570350646973, 37.24128723144531, -1.040726900100708, 0.8251897096633911, 9.865360260009766, -0.3018381595611572, -3.0092885494232178, 0.5141929984092712, 0.3603515625, 0.3486328125, -0.760986328125, 
414, 665581907, 4.388186454772949, 2.07692813873291, 37.24754333496094, -1.0123498439788818, 0.8274123668670654, 9.874334335327148, -0.3872103989124298, -3.1256284713745117, 0.5902671813964844, 0.3642578125, 0.34814453125, -0.759521484375, 
415, 665590240, 4.3908491134643555, 2.100968837738037, 37.246429443359375, -1.0103511810302734, 0.8044249415397644, 9.913930892944336, -0.3044251501560211, -3.1957852840423584, 0.5388338565826416, 0.36328125, 0.3525390625, -0.759033203125, 
416, 665598573, 4.389350891113281, 2.0887153148651123, 37.25347137451172, -1.0221946239471436, 0.818027913570404, 9.884397506713867, -0.32184287905693054, -3.0966076850891113, 0.6832213401794434, 0.36328125, 0.35107421875, -0.758544921875, 
417, 665606906, 4.39253568649292, 2.112462282180786, 37.253631591796875, -1.0132296085357666, 0.8062912225723267, 9.90051555633545, -0.24881669878959656, -3.2188899517059326, 0.7457457184791565, 0.36279296875, 0.34912109375, -0.761962890625, 
418, 665615239, 4.3931660652160645, 2.097445011138916, 37.262840270996094, -1.0271769762039185, 0.7889878749847412, 9.876161575317383, -0.07753429561853409, -3.4204227924346924, 0.970946192741394, 0.36328125, 0.34912109375, -0.760009765625, 
419, 665623572, 4.398061275482178, 2.118269443511963, 37.26898193359375, -1.0237667560577393, 0.8290021419525146, 9.900338172912598, -0.05663306638598442, -3.5383498668670654, 1.1752448081970215, 0.361328125, 0.35009765625, -0.760009765625, 
420, 665631905, 4.401313304901123, 2.102132797241211, 37.28020477294922, -0.9933299422264099, 0.8120781779289246, 9.893938064575195, 0.22787705063819885, -3.5473408699035645, 1.223451018333435, 0.3671875, 0.351806640625, -0.759033203125, 
421, 665640238, 4.407972812652588, 2.122058153152466, 37.28478240966797, -1.0249570608139038, 0.8593118786811829, 9.91771125793457, 0.149958536028862, -3.637861728668213, 1.3371526002883911, 0.36181640625, 0.3515625, -0.756591796875, 
422, 665648571, 4.409870147705078, 2.1036698818206787, 37.29637908935547, -1.0320510864257812, 0.8715851306915283, 9.891096115112305, 0.06166626885533333, -3.825357675552368, 1.2943257093429565, 0.3642578125, 0.35205078125, -0.759033203125, 
423, 665656904, 4.414928436279297, 2.121992349624634, 37.29908752441406, -0.9912262558937073, 0.8609505891799927, 9.91062068939209, -0.03583431616425514, -3.8440306186676025, 1.1932774782180786, 0.36328125, 0.34814453125, -0.760009765625, 
424, 665665237, 4.414212226867676, 2.1038293838500977, 37.30918502807617, -0.95818692445755, 0.8746107220649719, 9.801597595214844, -0.24576853215694427, -3.8230268955230713, 1.1152052879333496, 0.36328125, 0.34765625, -0.760009765625, 
425, 665673570, 4.416555404663086, 2.126284122467041, 37.31273651123047, -0.976862907409668, 0.8613253235816956, 9.864328384399414, -0.3479694128036499, -3.382206439971924, 0.7295575141906738, 0.3642578125, 0.35107421875, -0.759521484375, 
426, 665681903, 4.414696216583252, 2.1130897998809814, 37.31903076171875, -0.9910324215888977, 0.8471428751945496, 9.855253219604492, -0.36694955825805664, -3.2769317626953125, 0.6172390580177307, 0.36083984375, 0.349609375, -0.760498046875, 
427, 665690236, 4.416599273681641, 2.137082815170288, 37.319156646728516, -0.9683723449707031, 0.8343545198440552, 9.891142845153809, -0.3991210460662842, -3.208106279373169, 0.5453911423683167, 0.36181640625, 0.35009765625, -0.759521484375, 
428, 665698569, 4.41453742980957, 2.12434720993042, 37.32670593261719, -1.0075048208236694, 0.8359767198562622, 9.868648529052734, -0.3991978168487549, -3.220451831817627, 0.7644184231758118, 0.3603515625, 0.349609375, -0.756591796875, 
429, 665706902, 4.416346549987793, 2.146920680999756, 37.324703216552734, -0.9910818338394165, 0.8055811524391174, 9.877248764038086, -0.4148225784301758, -3.3689637184143066, 0.6506913304328918, 0.36083984375, 0.34765625, -0.759521484375, 
430, 665715235, 4.415261268615723, 2.1329634189605713, 37.33211135864258, -1.0177634954452515, 0.80656898021698, 9.869183540344238, -0.2820127606391907, -3.380925416946411, 0.7626254558563232, 0.36572265625, 0.3515625, -0.759521484375, 
431, 665723568, 4.418546676635742, 2.1543333530426025, 37.33422088623047, -1.031569004058838, 0.8247684240341187, 9.90382194519043, -0.2465626299381256, -3.4892737865448, 0.957293689250946, 0.36328125, 0.349609375, -0.759521484375, 
432, 665731901, 4.419593334197998, 2.1373414993286133, 37.34443664550781, -0.9879791140556335, 0.821706235408783, 9.887454986572266, -0.03931784629821777, -3.7274601459503174, 1.1301896572113037, 0.36572265625, 0.351318359375, -0.756591796875, 
433, 665740234, 4.425205230712891, 2.1558804512023926, 37.348388671875, -1.0132395029067993, 0.8149773478507996, 9.931378364562988, 0.029955845326185226, -3.8209776878356934, 1.115666389465332, 0.361328125, 0.34765625, -0.758544921875, 
434, 665748567, 4.426987171173096, 2.136573314666748, 37.36005401611328, -1.028459906578064, 0.8288941979408264, 9.928979873657227, 0.04120049998164177, -4.003223419189453, 1.3284695148468018, 0.36376953125, 0.34912109375, -0.759033203125, 
435, 665756900, 4.43263053894043, 2.153569459915161, 37.36475372314453, -0.9994163513183594, 0.8824501633644104, 9.868318557739258, 0.02831653691828251, -3.9881112575531006, 1.3118202686309814, 0.36474609375, 0.34912109375, -0.760009765625, 
436, 665765233, 4.433464527130127, 2.1349267959594727, 37.37534713745117, -0.9546902775764465, 0.8508141040802002, 9.817203521728516, -0.06977317482233047, -3.943951368331909, 1.196940302848816, 0.3642578125, 0.349609375, -0.759033203125, 
437, 665773566, 4.438879489898682, 2.154660701751709, 37.37870788574219, -0.9497159719467163, 0.8835242390632629, 9.843148231506348, 0.01635468564927578, -3.6948275566101074, 0.8613682985305786, 0.3623046875, 0.3505859375, -0.759521484375, 
438, 665781899, 4.438432216644287, 2.1417605876922607, 37.385379791259766, -0.9099130034446716, 0.8147000074386597, 9.817770004272461, -0.2073984593153, -3.3046205043792725, 0.6773300170898438, 0.36279296875, 0.353515625, -0.759033203125, 
439, 665790232, 4.440680503845215, 2.169265031814575, 37.379905700683594, -0.9660069346427917, 0.8637133836746216, 9.86351490020752, -0.3540143668651581, -2.786470413208008, 0.41772979497909546, 0.36181640625, 0.35107421875, -0.761962890625, 
440, 665798565, 4.438633918762207, 2.161672592163086, 37.38429260253906, -0.9879665970802307, 0.840370237827301, 9.868718147277832, -0.39000236988067627, -2.70273756980896, 0.3564092814922333, 0.3642578125, 0.3505859375, -0.754638671875, 
441, 665806898, 4.440570831298828, 2.1906161308288574, 37.3776969909668, -0.9793875217437744, 0.8725267648696899, 9.876548767089844, -0.38872164487838745, -2.616366147994995, 0.28796806931495667, 0.3623046875, 0.34912109375, -0.761474609375, 
442, 665815231, 4.4374542236328125, 2.1849205493927, 37.38103103637695, -0.9965687394142151, 0.8539156913757324, 9.905155181884766, -0.5140264630317688, -2.4962098598480225, 0.2164275050163269, 0.361328125, 0.349609375, -0.758544921875, 
443, 665823564, 4.438453674316406, 2.213975429534912, 37.37650680541992, -1.0226085186004639, 0.8345258235931396, 9.892501831054688, -0.5011425018310547, -2.596463680267334, 0.3128907382488251, 0.3642578125, 0.349609375, -0.759033203125, 
444, 665831897, 4.436196327209473, 2.2075207233428955, 37.382225036621094, -1.0166126489639282, 0.7784598469734192, 9.91347599029541, -0.423992395401001, -2.5755112171173096, 0.5145260095596313, 0.3642578125, 0.35205078125, -0.760986328125, 
445, 665840230, 4.439666748046875, 2.235525369644165, 37.3828125, -1.0310540199279785, 0.8336039781570435, 9.924717903137207, -0.2190273255109787, -2.6907238960266113, 0.7345265746116638, 0.361328125, 0.3505859375, -0.762451171875, 
446, 665848563, 4.439698696136475, 2.226224899291992, 37.39158630371094, -1.0200741291046143, 0.8082097172737122, 9.885982513427734, -0.1639823317527771, -2.8982250690460205, 0.9078838229179382, 0.3642578125, 0.34814453125, -0.760986328125, 
447, 665856896, 4.443727493286133, 2.250182628631592, 37.388275146484375, -1.0501015186309814, 0.8659247159957886, 9.90999984741211, -0.16080616414546967, -3.1547257900238037, 0.9871341586112976, 0.36279296875, 0.34765625, -0.759033203125, 
448, 665865229, 4.442510604858398, 2.238781690597534, 37.398529052734375, -1.0057778358459473, 0.8807650804519653, 9.900752067565918, -0.32133060693740845, -3.148041009902954, 1.1077260971069336, 0.3623046875, 0.34912109375, -0.759521484375, 
449, 665873562, 4.44388484954834, 2.261105537414551, 37.4000129699707, -0.9906944036483765, 0.8560906648635864, 9.902134895324707, -0.4751953184604645, -3.352903366088867, 0.9664379358291626, 0.36328125, 0.34912109375, -0.760498046875, 
450, 665881895, 4.4417548179626465, 2.24593448638916, 37.40875244140625, -1.0099318027496338, 0.850628674030304, 9.92663288116455, -0.42596471309661865, -3.622749090194702, 0.9682052731513977, 0.36181640625, 0.35107421875, -0.758544921875, 
451, 665890228, 4.442599773406982, 2.2661149501800537, 37.409542083740234, -1.025498628616333, 0.8471165895462036, 9.93529224395752, -0.5417665839195251, -3.6045119762420654, 1.0085476636886597, 0.361328125, 0.35009765625, -0.759521484375, 
452, 665898561, 4.4380388259887695, 2.248102903366089, 37.41899871826172, -1.0488547086715698, 0.8404563665390015, 9.92672348022461, -0.7210918664932251, -3.9678499698638916, 1.0809334516525269, 0.36376953125, 0.34912109375, -0.760986328125, 
453, 665906894, 4.438083171844482, 2.2621445655822754, 37.41743469238281, -1.0417379140853882, 0.8201552629470825, 9.986732482910156, -0.651139497756958, -4.316638946533203, 1.3120508193969727, 0.3623046875, 0.34765625, -0.760498046875, 
454, 665915227, 4.436768054962158, 2.2379260063171387, 37.429683685302734, -1.042707920074463, 0.7836583256721497, 9.969216346740723, -0.34643253684043884, -4.694065093994141, 1.4752647876739502, 0.36083984375, 0.35009765625, -0.760498046875, 
455, 665923560, 4.441329002380371, 2.245105028152466, 37.43739700317383, -1.0508679151535034, 0.7887558937072754, 9.92286491394043, -0.12730276584625244, -5.093314170837402, 1.9571454524993896, 0.36181640625, 0.35107421875, -0.758544921875, 
456, 665931893, 4.443630218505859, 2.213520050048828, 37.45537185668945, -1.0297147035598755, 0.7991525530815125, 9.939867973327637, 0.06120521202683449, -5.532571792602539, 2.2339839935302734, 0.3642578125, 0.3486328125, -0.759521484375, 
457, 665940226, 4.45050048828125, 2.2158236503601074, 37.462318420410156, -0.9993767142295837, 0.8486344218254089, 9.918707847595215, 0.142837792634964, -5.653958320617676, 2.2965338230133057, 0.359375, 0.35009765625, -0.760009765625, 
458, 665948559, 4.452347755432129, 2.1827926635742188, 37.47934341430664, -0.9674094319343567, 0.870961606502533, 9.868207931518555, 0.010719559155404568, -5.723937034606934, 2.1383919715881348, 0.36181640625, 0.34814453125, -0.759033203125, 
459, 665956892, 4.4573235511779785, 2.183408498764038, 37.483341217041016, -0.9704773426055908, 0.8475151062011719, 9.889582633972168, -0.07745745033025742, -5.867376327514648, 2.1281204223632812, 0.359375, 0.34912109375, -0.761962890625, 
460, 665965225, 4.456451892852783, 2.1494579315185547, 37.499996185302734, -0.971077024936676, 0.9027970433235168, 9.897745132446289, -0.3133133351802826, -5.846065521240234, 2.1092429161071777, 0.357421875, 0.34912109375, -0.761962890625, 
461, 665973558, 4.457998752593994, 2.1505072116851807, 37.50204086303711, -0.9607930779457092, 0.8408664464950562, 9.857192039489746, -0.4847494065761566, -5.818350315093994, 1.9978207349777222, 0.359375, 0.34912109375, -0.757568359375, 
462, 665981891, 4.456190586090088, 2.1189939975738525, 37.5173225402832, -0.9279860258102417, 0.8632761836051941, 9.855112075805664, -0.4199710190296173, -5.578370571136475, 1.9243590831756592, 0.361328125, 0.35009765625, -0.760498046875, 
463, 665990224, 4.457211017608643, 2.1236581802368164, 37.519073486328125, -0.9207311272621155, 0.895607590675354, 9.870240211486816, -0.5416130423545837, -5.394614219665527, 1.7863240242004395, 0.35986328125, 0.34912109375, -0.756103515625, 
464, 665998557, 4.451972007751465, 2.0963544845581055, 37.53165817260742, -0.9110519886016846, 0.8689969182014465, 9.877280235290527, -0.8197835087776184, -5.10927152633667, 1.5693457126617432, 0.3583984375, 0.349609375, -0.757080078125, 
465, 666006890, 4.448253154754639, 2.1065802574157715, 37.532466888427734, -0.8942294716835022, 0.8805414438247681, 9.857680320739746, -1.1071497201919556, -4.736456394195557, 1.5227279663085938, 0.359375, 0.3505859375, -0.760986328125, 
466, 666015223, 4.438713550567627, 2.084935426712036, 37.5433349609375, -0.9232578873634338, 0.9129966497421265, 9.895377159118652, -1.3286104202270508, -4.4588494300842285, 1.3144328594207764, 0.3583984375, 0.35009765625, -0.759521484375, 
467, 666023556, 4.431247234344482, 2.0996346473693848, 37.53996658325195, -0.935713529586792, 0.8627177476882935, 9.878396987915039, -1.5429760217666626, -4.221994400024414, 1.0588029623031616, 0.36279296875, 0.35009765625, -0.760498046875, 
468, 666031889, 4.418673038482666, 2.0811333656311035, 37.54767990112305, -0.9557166695594788, 0.9036998152732849, 9.888190269470215, -1.680806279182434, -4.123353958129883, 0.9119052886962891, 0.3583984375, 0.34912109375, -0.757568359375, 
469, 666040222, 4.407508373260498, 2.095785617828369, 37.54601287841797, -0.9071877598762512, 0.8863096237182617, 9.89773941040039, -1.9795194864273071, -4.239360809326172, 0.8001247048377991, 0.3564453125, 0.34716796875, -0.761474609375, 
470, 666048555, 4.386541366577148, 2.0793795585632324, 37.550174713134766, -0.8979266285896301, 0.9113546013832092, 9.849845886230469, -2.6725380420684814, -3.9165961742401123, 0.4686252176761627, 0.35888671875, 0.34716796875, -0.760009765625, 
471, 666056888, 4.367361545562744, 2.099294424057007, 37.541709899902344, -0.9118488430976868, 0.8373435139656067, 9.819188117980957, -2.9358270168304443, -3.6252598762512207, 0.447160542011261, 0.3583984375, 0.3505859375, -0.760498046875, 
472, 666065221, 4.3420000076293945, 2.085631847381592, 37.54608917236328, -0.9242621064186096, 0.8037505745887756, 9.864362716674805, -3.2027785778045654, -3.595163106918335, 0.47410669922828674, 0.35595703125, 0.3486328125, -0.758056640625, 
473, 666073554, 4.320015907287598, 2.1066858768463135, 37.53757095336914, -0.9072615504264832, 0.830333948135376, 9.837213516235352, -3.282515525817871, -3.4694736003875732, 0.5770758986473083, 0.359375, 0.35205078125, -0.760498046875, 
474, 666081887, 4.2908501625061035, 2.0929317474365234, 37.54309844970703, -0.9078705906867981, 0.811358630657196, 9.814620971679688, -3.6639623641967773, -3.6053571701049805, 0.6165217757225037, 0.35986328125, 0.35400390625, -0.758544921875, 
475, 666090220, 4.265136241912842, 2.1163346767425537, 37.53675842285156, -0.8951736092567444, 0.7760899662971497, 9.848316192626953, -3.7386538982391357, -3.1608221530914307, 0.8041718006134033, 0.35791015625, 0.353515625, -0.758544921875, 
476, 666098553, 4.235086441040039, 2.1074914932250977, 37.54449462890625, -0.9435636401176453, 0.8123244047164917, 9.905804634094238, -3.781045436859131, -3.0087761878967285, 0.8374702334403992, 0.35888671875, 0.3525390625, -0.761474609375, 
477, 666106886, 4.204125881195068, 2.129880428314209, 37.53533172607422, -0.9301822185516357, 0.8909780979156494, 9.888736724853516, -4.365997791290283, -3.2697596549987793, 0.8240740299224854, 0.3564453125, 0.353515625, -0.758544921875, 
478, 666115219, 4.163695335388184, 2.1187756061553955, 37.5414924621582, -0.9284127950668335, 0.8604939579963684, 9.897177696228027, -5.0225419998168945, -3.304441452026367, 0.6735135912895203, 0.36181640625, 0.353515625, -0.758544921875, 
479, 666123552, 4.121955394744873, 2.1384739875793457, 37.532466888427734, -0.9377880692481995, 0.8752289414405823, 9.904354095458984, -5.659900665283203, -3.5923964977264404, 0.771411120891571, 0.3603515625, 0.35498046875, -0.757568359375, 
480, 666131885, 4.069637775421143, 2.125330924987793, 37.53886413574219, -0.9205699563026428, 0.8473851084709167, 9.91162109375, -6.450228214263916, -3.5563831329345703, 0.723281979560852, 0.359375, 0.35205078125, -0.758056640625, 
481, 666140218, 4.015233039855957, 2.1422362327575684, 37.53269958496094, -0.8536767959594727, 0.7539135217666626, 9.852407455444336, -7.182461261749268, -3.920924425125122, 0.7715135216712952, 0.359375, 0.3583984375, -0.758544921875, 
482, 666148551, 3.954469919204712, 2.1332623958587646, 37.53826904296875, -0.7810219526290894, 0.8343284130096436, 9.828363418579102, -7.461658000946045, -3.075578451156616, 0.5909588932991028, 0.3642578125, 0.35546875, -0.758056640625, 
483, 666156884, 3.8923134803771973, 2.1653125286102295, 37.52544403076172, -0.6803036332130432, 0.7775846719741821, 9.737546920776367, -8.099502563476562, -2.1235480308532715, 0.2424515187740326, 0.35888671875, 0.36083984375, -0.758056640625, 
484, 666165217, 3.8200719356536865, 2.1818323135375977, 37.522247314453125, -0.5745459198951721, 0.8113355040550232, 9.56399917602539, -8.800411224365234, -0.10570995509624481, -0.6593104600906372, 0.361328125, 0.35791015625, -0.757080078125, 
485, 666173550, 3.747405529022217, 2.2675418853759766, 37.499916076660156, -0.3561316132545471, 0.7374517917633057, 9.605138778686523, -9.31264591217041, 4.239655494689941, -1.4987658262252808, 0.3603515625, 0.35986328125, -0.755615234375, 
486, 666181883, 3.6588222980499268, 2.3641421794891357, 37.48317337036133, -0.3567034602165222, 1.026842713356018, 9.739081382751465, -10.696762084960938, 9.373363494873047, -2.8895676136016846, 0.3603515625, 0.35986328125, -0.759033203125, 
487, 666190216, 3.5416197776794434, 2.566889762878418, 37.45344543457031, 1.2938083410263062, 1.8848472833633423, 9.30217456817627, -14.606805801391602, 18.24163246154785, -3.462251901626587, 0.3623046875, 0.361328125, -0.756591796875, 
488, 666198549, 3.3421597480773926, 2.8725690841674805, 37.4702033996582, 0.9417569041252136, 2.070702314376831, 9.633752822875977, -24.17879867553711, 34.661861419677734, -0.32988622784614563, 0.36572265625, 0.363037109375, -0.756591796875, 
489, 666206882, 3.15077543258667, 3.3851494789123535, 37.40776443481445, 0.8430067896842957, -2.0232913494110107, 8.153243064880371, -23.35149574279785, 55.307830810546875, -9.141621589660645, 0.369140625, 0.367431640625, -0.753662109375, 
490, 666215215, 3.004408121109009, 4.065548419952393, 37.25988006591797, 0.24690455198287964, -0.1041603684425354, 9.692402839660645, -16.561189651489258, 78.49879455566406, -22.196533203125, 0.3818359375, 0.3701171875, -0.7509765625, 
491, 666223548, 2.8432648181915283, 4.88569974899292, 37.05209732055664, -0.31176722049713135, 1.282489538192749, 9.862968444824219, -18.197988510131836, 91.53053283691406, -27.585172653198242, 0.389892578125, 0.3720703125, -0.751953125, 
492, 666231881, 2.6397364139556885, 5.772626876831055, 36.82748794555664, -0.5900450944900513, 0.664196252822876, 10.10726547241211, -22.071712493896484, 102.93761444091797, -32.0222282409668, 0.3974609375, 0.372314453125, -0.74853515625, 
493, 666240214, 2.4072742462158203, 6.802935600280762, 36.55417251586914, -0.8394641876220703, 0.9403266310691833, 10.302335739135742, -25.0418701171875, 116.64225769042969, -36.74322509765625, 0.414794921875, 0.37744140625, -0.74609375, 
494, 666248547, 2.1160595417022705, 7.8913421630859375, 36.26105499267578, -1.055999517440796, 1.539118766784668, 10.767854690551758, -30.59947395324707, 127.03488159179688, -40.13540267944336, 0.4267578125, 0.379150390625, -0.73974609375, 
495, 666256880, 1.762840986251831, 9.098392486572266, 35.94001770019531, -1.0937820672988892, 1.83897864818573, 10.937110900878906, -37.377098083496094, 138.07420349121094, -42.356651306152344, 0.441162109375, 0.384765625, -0.7373046875, 
496, 666265213, 1.3347382545471191, 10.37474536895752, 35.604740142822266, -1.0526014566421509, 1.8619129657745361, 11.231613159179688, -44.721012115478516, 149.9318084716797, -43.89531707763672, 0.457275390625, 0.387451171875, -0.73291015625, 
497, 666273546, 0.835315465927124, 11.774038314819336, 35.24811935424805, -0.9891878366470337, 1.5125948190689087, 11.506758689880371, -52.353721618652344, 161.74729919433594, -45.31281280517578, 0.470458984375, 0.3935546875, -0.72802734375, 
