PacketCounter,SampleTimeFine,Euler_X,Euler_Y,Euler_Z,Acc_X,Acc_Y,Acc_Z,Gyr_X,Gyr_Y,Gyr_Z,Mag_X,Mag_Y,Mag_Z,
0, 475020630, 3.5464441776275635, 9.137158393859863, 33.83739471435547, 0, 0, 0, 0, 0, 0, 0.4208984375, 0.3642578125, -0.7431640625, 
1, 475028963, 3.544353485107422, 9.112102508544922, 33.8408088684082, -1.5857694149017334, 0.6162828803062439, 9.839533805847168, -0.3163358271121979, -2.9753754138946533, 0.5885511040687561, 0.4208984375, 0.364990234375, -0.7421875, 
2, 475037296, 3.5415873527526855, 9.086385726928711, 33.84352111816406, -1.5760964155197144, 0.6195833683013916, 9.807265281677246, -0.38201072812080383, -3.060593843460083, 0.5131940841674805, 0.42041015625, 0.363525390625, -0.73974609375, 
3, 475045629, 3.541149854660034, 9.058225631713867, 33.82502365112305, -1.556981086730957, 0.6282546520233154, 9.828112602233887, -0.4344174563884735, -3.0523972511291504, 0.5362212657928467, 0.41845703125, 0.3642578125, -0.73876953125, 
4, 475053962, 3.5386619567871094, 9.032919883728027, 33.827720642089844, -1.5782322883605957, 0.6186793446540833, 9.805112838745117, -0.3492244482040405, -3.011439800262451, 0.5065855383872986, 0.421875, 0.363525390625, -0.74365234375, 
5, 475062295, 3.5551822185516357, 9.000550270080566, 33.81199645996094, -1.577414870262146, 0.6091599464416504, 9.8424654006958, -0.32455796003341675, -2.9884896278381348, 0.5442384481430054, 0.42236328125, 0.362548828125, -0.7392578125, 
6, 475070628, 3.552403450012207, 8.97575855255127, 33.81432342529297, -1.5840349197387695, 0.6234081387519836, 9.841410636901855, -0.37716957926750183, -2.9524247646331787, 0.4591223895549774, 0.42333984375, 0.362060546875, -0.7392578125, 
7, 475078961, 3.560699462890625, 8.9589262008667, 33.87664794921875, -1.5836430788040161, 0.599252462387085, 9.823800086975098, -0.3457922041416168, -3.0622589588165283, 0.58360755443573, 0.42333984375, 0.361083984375, -0.74267578125, 
8, 475087294, 3.55887770652771, 8.933244705200195, 33.88042449951172, -1.5736784934997559, 0.600764274597168, 9.829989433288574, -0.2882882356643677, -3.047556161880493, 0.6375767588615417, 0.421875, 0.362548828125, -0.73876953125, 
9, 475095627, 3.561030864715576, 8.926528930664062, 33.94933319091797, -1.5802351236343384, 0.618796169757843, 9.825305938720703, -0.29848265647888184, -3.0491437911987305, 0.49992576241493225, 0.4189453125, 0.36279296875, -0.73974609375, 
10, 475103960, 3.558241844177246, 8.900362014770508, 33.95210266113281, -1.5941716432571411, 0.6056135296821594, 9.837103843688965, -0.38531494140625, -3.113077163696289, 0.5230811238288879, 0.42236328125, 0.365966796875, -0.73876953125, 
11, 475112293, 3.555941581726074, 8.892741203308105, 33.95792007446289, -1.5766818523406982, 0.6142582893371582, 9.876224517822266, -0.47378647327423096, -3.1802120208740234, 0.5560978651046753, 0.42138671875, 0.362548828125, -0.740234375, 
12, 475120626, 3.553162097930908, 8.865121841430664, 33.961326599121094, -1.590868353843689, 0.6046966314315796, 9.813002586364746, -0.3966364562511444, -3.2819268703460693, 0.6082741618156433, 0.4228515625, 0.364501953125, -0.740234375, 
13, 475128959, 3.5498828887939453, 8.857955932617188, 33.99245834350586, -1.5748567581176758, 0.6023541688919067, 9.852179527282715, -0.4327012896537781, -3.250779628753662, 0.6018449068069458, 0.41845703125, 0.36376953125, -0.740234375, 
14, 475137292, 3.546572685241699, 8.83084774017334, 33.99467849731445, -1.5577889680862427, 0.5890604853630066, 9.788772583007812, -0.43810588121414185, -3.2310307025909424, 0.46416833996772766, 0.42138671875, 0.365478515625, -0.74169921875, 
15, 475145625, 3.5419790744781494, 8.825335502624512, 33.99265670776367, -1.5603218078613281, 0.6068787574768066, 9.791458129882812, -0.4066515564918518, -3.0802652835845947, 0.5198793411254883, 0.41943359375, 0.3642578125, -0.740234375, 
16, 475153958, 3.539170980453491, 8.799760818481445, 33.99449920654297, -1.566460371017456, 0.6100669503211975, 9.836251258850098, -0.37102222442626953, -3.050758123397827, 0.4082525372505188, 0.42041015625, 0.364501953125, -0.7392578125, 
17, 475162291, 3.5338082313537598, 8.793440818786621, 34.00202178955078, -1.5620324611663818, 0.6132423281669617, 9.82235050201416, -0.4064467251300812, -2.836008310317993, 0.5216724276542664, 0.4189453125, 0.36474609375, -0.74169921875, 
18, 475170624, 3.531330108642578, 8.767895698547363, 34.00436782836914, -1.5725802183151245, 0.601894736289978, 9.841436386108398, -0.3412584364414215, -3.0425868034362793, 0.4655002951622009, 0.41943359375, 0.3603515625, -0.7373046875, 
19, 475178957, 3.5275604724884033, 8.756794929504395, 34.00648498535156, -1.5597164630889893, 0.6088759899139404, 9.785295486450195, -0.39174410700798035, -3.2114617824554443, 0.5639870762825012, 0.41796875, 0.36376953125, -0.73876953125, 
20, 475187290, 3.5245296955108643, 8.729840278625488, 34.00962829589844, -1.5857008695602417, 0.6120805144309998, 9.837646484375, -0.4212261140346527, -3.2065436840057373, 0.5723373293876648, 0.41796875, 0.36181640625, -0.7392578125, 
21, 475195623, 3.520833969116211, 8.717923164367676, 34.0162353515625, -1.5797114372253418, 0.6025095582008362, 9.796269416809082, -0.4038596749305725, -3.275318145751953, 0.4542044401168823, 0.419921875, 0.3623046875, -0.73974609375, 
22, 475203956, 3.5191292762756348, 8.69035530090332, 34.019195556640625, -1.580147385597229, 0.5911324620246887, 9.830059051513672, -0.2574230432510376, -3.280466318130493, 0.5550476312637329, 0.42041015625, 0.3642578125, -0.74365234375, 
23, 475212289, 3.5174596309661865, 8.678239822387695, 34.04905700683594, -1.5609569549560547, 0.6018998026847839, 9.821510314941406, -0.22955478727817535, -3.4264166355133057, 0.5842735171318054, 0.4208984375, 0.36279296875, -0.7431640625, 
24, 475220622, 3.5154826641082764, 8.651463508605957, 34.05211639404297, -1.566752552986145, 0.6071504950523376, 9.827964782714844, -0.2917461395263672, -3.185360908508301, 0.560221791267395, 0.4228515625, 0.363037109375, -0.74365234375, 
25, 475228955, 3.5127756595611572, 8.640573501586914, 34.07841491699219, -1.5751986503601074, 0.5940947532653809, 9.816036224365234, -0.2917717695236206, -3.2394323348999023, 0.5585312843322754, 0.419921875, 0.36376953125, -0.73876953125, 
26, 475237288, 3.5112428665161133, 8.613177299499512, 34.082000732421875, -1.5541046857833862, 0.6194562315940857, 9.809295654296875, -0.2487654685974121, -3.2559025287628174, 0.6254869103431702, 0.42333984375, 0.363037109375, -0.73876953125, 
27, 475245621, 3.509160041809082, 8.602803230285645, 34.10444259643555, -1.5862116813659668, 0.6010425090789795, 9.79405689239502, -0.2324235439300537, -3.1657912731170654, 0.6008459329605103, 0.419921875, 0.36083984375, -0.73779296875, 
28, 475253954, 3.507260322570801, 8.57624340057373, 34.1071891784668, -1.568544626235962, 0.6153869032859802, 9.811132431030273, -0.27727413177490234, -3.160745143890381, 0.5192133188247681, 0.41943359375, 0.3642578125, -0.7392578125, 
29, 475262287, 3.50526762008667, 8.567004203796387, 34.13978576660156, -1.5802648067474365, 0.6133043169975281, 9.821277618408203, -0.2914900481700897, -3.037848472595215, 0.571850597858429, 0.4208984375, 0.3603515625, -0.74072265625, 
30, 475270620, 3.5028605461120605, 8.541015625, 34.14292526245117, -1.5736950635910034, 0.6129220128059387, 9.8494234085083, -0.344076007604599, -3.0902292728424072, 0.5623220801353455, 0.41943359375, 0.36328125, -0.740234375, 
31, 475278953, 3.500908374786377, 8.530852317810059, 34.181175231933594, -1.5806081295013428, 0.6126286387443542, 9.826520919799805, -0.35094064474105835, -3.1623334884643555, 0.5311752557754517, 0.42041015625, 0.363037109375, -0.7373046875, 
32, 475287286, 3.498039484024048, 8.503572463989258, 34.184268951416016, -1.6001629829406738, 0.5958301424980164, 9.81480598449707, -0.39835256338119507, -3.245912551879883, 0.5658824443817139, 0.42041015625, 0.3623046875, -0.73974609375, 
33, 475295619, 3.496103525161743, 8.492955207824707, 34.21466064453125, -1.5769256353378296, 0.5989907383918762, 9.829950332641602, -0.4008371829986572, -3.211564302444458, 0.6627044081687927, 0.41943359375, 0.362060546875, -0.73486328125, 
34, 475303952, 3.493481159210205, 8.46446704864502, 34.21818542480469, -1.5798040628433228, 0.5913048386573792, 9.825319290161133, -0.3767598271369934, -3.386996030807495, 0.6246415376663208, 0.42041015625, 0.362548828125, -0.73779296875, 
35, 475312285, 3.491065740585327, 8.453228950500488, 34.24591827392578, -1.5726736783981323, 0.6091516613960266, 9.846280097961426, -0.42721980810165405, -3.339404582977295, 0.6595537066459656, 0.4208984375, 0.362548828125, -0.74072265625, 
36, 475320618, 3.488490581512451, 8.426165580749512, 34.24824142456055, -1.5771880149841309, 0.6179219484329224, 9.82713794708252, -0.35001853108406067, -3.226240634918213, 0.4720832109451294, 0.4189453125, 0.36083984375, -0.73974609375, 
37, 475328951, 3.4863672256469727, 8.415815353393555, 34.269222259521484, -1.5702459812164307, 0.6156439781188965, 9.855327606201172, -0.3731737732887268, -3.219785690307617, 0.6329660415649414, 0.4208984375, 0.362548828125, -0.73779296875, 
38, 475337284, 3.4834325313568115, 8.389678955078125, 34.272010803222656, -1.573294997215271, 0.6189406514167786, 9.828788757324219, -0.40022245049476624, -3.111438035964966, 0.5202123522758484, 0.42236328125, 0.363037109375, -0.73876953125, 
39, 475345617, 3.4807934761047363, 8.380966186523438, 34.302574157714844, -1.576201319694519, 0.601970911026001, 9.824163436889648, -0.4565224349498749, -3.012950897216797, 0.44375377893447876, 0.41796875, 0.36279296875, -0.73681640625, 
40, 475353950, 3.4779248237609863, 8.35561466217041, 34.30501937866211, -1.564538598060608, 0.6197742819786072, 9.821124076843262, -0.38575035333633423, -3.021301507949829, 0.47423475980758667, 0.41845703125, 0.36181640625, -0.740234375, 
41, 475362283, 3.4759111404418945, 8.34485149383545, 34.318519592285156, -1.5767760276794434, 0.6157433986663818, 9.825803756713867, -0.40703582763671875, -3.245887041091919, 0.5168312191963196, 0.4208984375, 0.364990234375, -0.7392578125, 
42, 475370616, 3.4730162620544434, 8.318336486816406, 34.321083068847656, -1.575431227684021, 0.6152662038803101, 9.839484214782715, -0.3923588693141937, -3.159029006958008, 0.49544334411621094, 0.419921875, 0.365478515625, -0.73486328125, 
43, 475378949, 3.4714086055755615, 8.306988716125488, 34.340518951416016, -1.5858408212661743, 0.6039308309555054, 9.831350326538086, -0.3892339766025543, -3.3000359535217285, 0.5034862756729126, 0.42138671875, 0.362548828125, -0.7412109375, 
44, 475387282, 3.467456102371216, 8.279497146606445, 34.3435173034668, -1.5735820531845093, 0.6125002503395081, 9.839332580566406, -0.5263981223106384, -3.2736268043518066, 0.5541511178016663, 0.42041015625, 0.363037109375, -0.7392578125, 
45, 475395615, 3.4656174182891846, 8.267139434814453, 34.370521545410156, -1.5892395973205566, 0.5735880136489868, 9.84045696258545, -0.4527828097343445, -3.413301944732666, 0.7138303518295288, 0.419921875, 0.365478515625, -0.73974609375, 
46, 475403948, 3.462822675704956, 8.236828804016113, 34.373817443847656, -1.5701879262924194, 0.6134533882141113, 9.81357192993164, -0.3920258581638336, -3.610069990158081, 0.6096571683883667, 0.4208984375, 0.366943359375, -0.73828125, 
47, 475412281, 3.4602701663970947, 8.225030899047852, 34.386173248291016, -1.5655622482299805, 0.6240137219429016, 9.781538009643555, -0.49914461374282837, -3.3508801460266113, 0.6587085127830505, 0.42236328125, 0.364990234375, -0.73779296875, 
48, 475420614, 3.4565231800079346, 8.197430610656738, 34.38885498046875, -1.570931077003479, 0.5904110074043274, 9.819138526916504, -0.49412423372268677, -3.290046215057373, 0.5161140561103821, 0.41845703125, 0.3642578125, -0.74267578125, 
49, 475428947, 3.455166816711426, 8.186219215393066, 34.427974700927734, -1.5518239736557007, 0.5935470461845398, 9.806777000427246, -0.38913148641586304, -3.2691705226898193, 0.6559165120124817, 0.42138671875, 0.363525390625, -0.7373046875, 
50, 475437280, 3.4522738456726074, 8.16042709350586, 34.43073272705078, -1.5703390836715698, 0.6224504113197327, 9.819223403930664, -0.39376765489578247, -3.0722484588623047, 0.5103251934051514, 0.41943359375, 0.36376953125, -0.74169921875, 
51, 475445613, 3.450636386871338, 8.149493217468262, 34.45515060424805, -1.5745288133621216, 0.6055244207382202, 9.849401473999023, -0.3822668194770813, -3.2214767932891846, 0.5378605127334595, 0.4208984375, 0.364501953125, -0.73974609375, 
52, 475453946, 3.447568416595459, 8.122634887695312, 34.458038330078125, -1.5650986433029175, 0.6252809166908264, 9.817144393920898, -0.4167180061340332, -3.2001147270202637, 0.5317386984825134, 0.4228515625, 0.362060546875, -0.73974609375, 
53, 475462279, 3.4447851181030273, 8.11398983001709, 34.48785400390625, -1.5620312690734863, 0.571527361869812, 9.832480430603027, -0.5464540719985962, -2.9359548091888428, 0.5960560441017151, 0.41943359375, 0.36376953125, -0.73974609375, 
54, 475470612, 3.4409773349761963, 8.088425636291504, 34.49066925048828, -1.594421148300171, 0.6388691663742065, 9.82336139678955, -0.5034989714622498, -3.0474281311035156, 0.515038251876831, 0.421875, 0.362548828125, -0.74169921875, 
55, 475478945, 3.4378252029418945, 8.078542709350586, 34.51291275024414, -1.5904287099838257, 0.5833163261413574, 9.820267677307129, -0.5841326117515564, -3.065460205078125, 0.6210043430328369, 0.42138671875, 0.361572265625, -0.7392578125, 
56, 475487278, 3.433865547180176, 8.051995277404785, 34.51601028442383, -1.5744168758392334, 0.6008692383766174, 9.84090518951416, -0.5279093980789185, -3.163844585418701, 0.5528703927993774, 0.4189453125, 0.36328125, -0.74072265625, 
57, 475495611, 3.4313442707061768, 8.041502952575684, 34.54480743408203, -1.5777976512908936, 0.5802107453346252, 9.82351303100586, -0.5217363238334656, -3.165663242340088, 0.6462342739105225, 0.41943359375, 0.361328125, -0.740234375, 
58, 475503944, 3.4275121688842773, 8.014022827148438, 34.54941940307617, -1.5936325788497925, 0.6017486453056335, 9.813916206359863, -0.537053644657135, -3.2641756534576416, 0.7397263646125793, 0.4228515625, 0.364990234375, -0.73779296875, 
59, 475512277, 3.4252665042877197, 8.002726554870605, 34.57950973510742, -1.580841064453125, 0.6120460629463196, 9.838346481323242, -0.48298200964927673, -3.2561070919036865, 0.7357048392295837, 0.419921875, 0.36279296875, -0.740234375, 
60, 475520610, 3.4216220378875732, 7.974736213684082, 34.58325958251953, -1.5746856927871704, 0.6115539073944092, 9.826268196105957, -0.4993239641189575, -3.3329503536224365, 0.6390624642372131, 0.42138671875, 0.364013671875, -0.73779296875, 
61, 475528943, 3.418494462966919, 7.962375164031982, 34.612823486328125, -1.553377628326416, 0.594359815120697, 9.832005500793457, -0.5859768390655518, -3.401672601699829, 0.6680832505226135, 0.4208984375, 0.364990234375, -0.73828125, 
62, 475537276, 3.4144210815429688, 7.93432092666626, 34.616600036621094, -1.5713609457015991, 0.5790383219718933, 9.864612579345703, -0.5518074631690979, -3.3410441875457764, 0.6398051977157593, 0.421875, 0.364013671875, -0.73974609375, 
63, 475545609, 3.411508321762085, 7.921618461608887, 34.64033126831055, -1.58794105052948, 0.5969942808151245, 9.822160720825195, -0.5688154101371765, -3.423163414001465, 0.7218988537788391, 0.41845703125, 0.36376953125, -0.7421875, 
64, 475553942, 3.406780481338501, 7.8919806480407715, 34.6441650390625, -1.5559366941452026, 0.6053851246833801, 9.80936336517334, -0.6291624307632446, -3.531075954437256, 0.6554042100906372, 0.41748046875, 0.36279296875, -0.74267578125, 
65, 475562275, 3.403313398361206, 7.878398895263672, 34.65922927856445, -1.5847084522247314, 0.5827213525772095, 9.844173431396484, -0.6066475510597229, -3.5392980575561523, 0.630430281162262, 0.421875, 0.362060546875, -0.7421875, 
66, 475570608, 3.399043321609497, 7.848520278930664, 34.663185119628906, -1.5516712665557861, 0.5928019881248474, 9.857016563415527, -0.5765507817268372, -3.5591490268707275, 0.670900821685791, 0.42333984375, 0.363525390625, -0.73876953125, 
67, 475578941, 3.395465135574341, 7.835125923156738, 34.69337844848633, -1.5912948846817017, 0.6144569516181946, 9.828266143798828, -0.6179178357124329, -3.5130951404571533, 0.6372437477111816, 0.41748046875, 0.36474609375, -0.74072265625, 
68, 475587274, 3.3909013271331787, 7.804769992828369, 34.697509765625, -1.5937786102294922, 0.5734900236129761, 9.831028938293457, -0.6139731407165527, -3.6165242195129395, 0.6960282921791077, 0.4169921875, 0.361328125, -0.74169921875, 
69, 475595607, 3.3879435062408447, 7.789865970611572, 34.715126037597656, -1.5636733770370483, 0.6018708944320679, 9.829568862915039, -0.5813918709754944, -3.6760518550872803, 0.8921052813529968, 0.41943359375, 0.365478515625, -0.73828125, 
70, 475603940, 3.3842999935150146, 7.758710861206055, 34.72028350830078, -1.5696858167648315, 0.5610790848731995, 9.826993942260742, -0.5187906622886658, -3.707275629043579, 0.8204365968704224, 0.41943359375, 0.365478515625, -0.7353515625, 
71, 475612273, 3.3818304538726807, 7.743803024291992, 34.74479675292969, -1.5412907600402832, 0.5659903287887573, 9.803297996520996, -0.5012961626052856, -3.6908576488494873, 0.784115731716156, 0.419921875, 0.3623046875, -0.73828125, 
72, 475620606, 3.379246950149536, 7.713423252105713, 34.74936294555664, -1.5784950256347656, 0.583897054195404, 9.869667053222656, -0.3820362985134125, -3.619009494781494, 0.7461553812026978, 0.42041015625, 0.362548828125, -0.7392578125, 
73, 475628939, 3.3776540756225586, 7.6988654136657715, 34.7751350402832, -1.5639334917068481, 0.5781877040863037, 9.824369430541992, -0.3729945123195648, -3.6388607025146484, 0.7984084486961365, 0.421875, 0.363525390625, -0.7412109375, 
74, 475637272, 3.37522029876709, 7.667765140533447, 34.78083801269531, -1.55916166305542, 0.5832434892654419, 9.834627151489258, -0.38149839639663696, -3.698106050491333, 0.8853431940078735, 0.4189453125, 0.3642578125, -0.7392578125, 
75, 475645605, 3.3746681213378906, 7.651148319244385, 34.819129943847656, -1.5881761312484741, 0.5905104279518127, 9.849577903747559, -0.25788411498069763, -3.8806843757629395, 0.9531439542770386, 0.41552734375, 0.3642578125, -0.7392578125, 
76, 475653938, 3.3731985092163086, 7.617086887359619, 34.825435638427734, -1.5897750854492188, 0.5995405912399292, 9.854452133178711, -0.2760702073574066, -4.051198482513428, 0.9760688543319702, 0.4189453125, 0.36279296875, -0.7412109375, 
77, 475662271, 3.3730642795562744, 7.598193645477295, 34.845909118652344, -1.562019944190979, 0.5846121311187744, 9.85632610321045, -0.20429915189743042, -4.159700870513916, 0.9761201739311218, 0.419921875, 0.3623046875, -0.73974609375, 
78, 475670604, 3.3720028400421143, 7.562713623046875, 34.851226806640625, -1.536308765411377, 0.6579782366752625, 9.783595085144043, -0.20990866422653198, -4.228295803070068, 0.8661837577819824, 0.4208984375, 0.364501953125, -0.73876953125, 
79, 475678937, 3.3704447746276855, 7.5447516441345215, 34.882198333740234, -1.4448633193969727, 0.6315822005271912, 9.766475677490234, -0.34907078742980957, -4.0685648918151855, 0.7643671631813049, 0.41748046875, 0.36474609375, -0.736328125, 
80, 475687270, 3.367356777191162, 7.516858100891113, 34.883941650390625, -1.521025538444519, 0.6096599102020264, 9.79605484008789, -0.39648276567459106, -3.3476784229278564, 0.3882478177547455, 0.4208984375, 0.362060546875, -0.73828125, 
81, 475695603, 3.366659641265869, 7.5054779052734375, 34.901248931884766, -1.5687646865844727, 0.5894556045532227, 9.813504219055176, -0.24033838510513306, -3.2613837718963623, 0.39029693603515625, 0.4208984375, 0.363037109375, -0.7412109375, 
82, 475703936, 3.3655574321746826, 7.478847026824951, 34.90400314331055, -1.548988938331604, 0.5673264861106873, 9.782387733459473, -0.1739206612110138, -3.188101291656494, 0.4989781379699707, 0.42138671875, 0.364013671875, -0.74169921875, 
83, 475712269, 3.367595672607422, 7.469067096710205, 34.92987060546875, -1.5717211961746216, 0.5967085361480713, 9.824712753295898, 0.05782414227724075, -3.058058023452759, 0.5831465125083923, 0.42236328125, 0.364501953125, -0.73974609375, 
84, 475720602, 3.369155168533325, 7.44377326965332, 34.933815002441406, -1.5708791017532349, 0.6061590909957886, 9.825611114501953, 0.12616290152072906, -3.0223257541656494, 0.6310195326805115, 0.4208984375, 0.361572265625, -0.7373046875, 
85, 475728935, 3.370302677154541, 7.43386697769165, 34.963111877441406, -1.5593616962432861, 0.6063087582588196, 9.822322845458984, -0.03949715197086334, -3.0838773250579834, 0.5621684789657593, 0.41650390625, 0.36572265625, -0.73681640625, 
86, 475737268, 3.3695473670959473, 7.407661437988281, 34.9658317565918, -1.555532455444336, 0.6153090596199036, 9.850582122802734, -0.13140103220939636, -3.1423799991607666, 0.4901667833328247, 0.41943359375, 0.36181640625, -0.7392578125, 
87, 475745601, 3.3710951805114746, 7.397153854370117, 34.98173904418945, -1.5615192651748657, 0.6027459502220154, 9.82236385345459, 0.015330119989812374, -3.174013614654541, 0.4558181166648865, 0.41650390625, 0.36474609375, -0.73974609375, 
88, 475753934, 3.370659589767456, 7.370516777038574, 34.98407745361328, -1.549533486366272, 0.595397412776947, 9.826382637023926, -0.08662733435630798, -3.196579694747925, 0.44649451971054077, 0.42236328125, 0.364501953125, -0.73828125, 
89, 475762267, 3.371487617492676, 7.360667705535889, 35.000370025634766, -1.5790774822235107, 0.6047570109367371, 9.839667320251465, -0.08908630162477493, -3.0967862606048584, 0.5418819189071655, 0.4169921875, 0.36572265625, -0.7412109375, 
90, 475770600, 3.3710079193115234, 7.3351664543151855, 35.00328063964844, -1.5524053573608398, 0.6230681538581848, 9.799182891845703, -0.0995112955570221, -3.0589542388916016, 0.5061500668525696, 0.41845703125, 0.36474609375, -0.73974609375, 
91, 475778933, 3.3722026348114014, 7.325672626495361, 35.01913070678711, -1.5180344581604004, 0.6282714009284973, 9.813224792480469, -0.04075224697589874, -3.0674071311950684, 0.4966215193271637, 0.41845703125, 0.3642578125, -0.7412109375, 
92, 475787266, 3.371314287185669, 7.301469802856445, 35.0215950012207, -1.543456792831421, 0.6026949286460876, 9.844482421875, -0.14292742311954498, -2.907830238342285, 0.4451882541179657, 0.4189453125, 0.36328125, -0.74072265625, 
93, 475795599, 3.371711492538452, 7.292715072631836, 35.042808532714844, -1.574368953704834, 0.6065681576728821, 9.839417457580566, -0.14187724888324738, -2.9799602031707764, 0.431894451379776, 0.41943359375, 0.36279296875, -0.73681640625, 
94, 475803932, 3.369818925857544, 7.26861572265625, 35.045562744140625, -1.562669038772583, 0.6209527254104614, 9.838033676147461, -0.2684115469455719, -2.8959453105926514, 0.4776158630847931, 0.42138671875, 0.364501953125, -0.7392578125, 
95, 475812265, 3.369140386581421, 7.261358737945557, 35.0736083984375, -1.5433558225631714, 0.607796847820282, 9.839513778686523, -0.27683866024017334, -2.8073201179504395, 0.4501829445362091, 0.41943359375, 0.365234375, -0.7421875, 
96, 475820598, 3.366872549057007, 7.238411903381348, 35.076011657714844, -1.523889422416687, 0.6221177577972412, 9.813863754272461, -0.30675607919692993, -2.7628793716430664, 0.42638733983039856, 0.41845703125, 0.36376953125, -0.73876953125, 
97, 475828931, 3.3665409088134766, 7.23309850692749, 35.09578323364258, -1.5265898704528809, 0.6016359329223633, 9.829395294189453, -0.22361227869987488, -2.585808277130127, 0.30354154109954834, 0.41650390625, 0.365234375, -0.73828125, 
98, 475837264, 3.364581346511841, 7.2118916511535645, 35.09808349609375, -1.5622090101242065, 0.5961031913757324, 9.8519926071167, -0.2687445878982544, -2.5579912662506104, 0.4014391303062439, 0.42138671875, 0.364501953125, -0.7392578125, 
99, 475845597, 3.3637447357177734, 7.206279754638672, 35.114933013916016, -1.572324275970459, 0.6125124096870422, 9.82951545715332, -0.3032981753349304, -2.610372304916382, 0.4054093658924103, 0.41748046875, 0.361328125, -0.7373046875, 
100, 475853930, 3.3615992069244385, 7.184893608093262, 35.117122650146484, -1.5727514028549194, 0.6065787076950073, 9.857808113098145, -0.28880050778388977, -2.5825040340423584, 0.38873445987701416, 0.419921875, 0.36328125, -0.7431640625, 
101, 475862263, 3.3609211444854736, 7.17828893661499, 35.14030075073242, -1.5637180805206299, 0.610105037689209, 9.817832946777344, -0.2937184274196625, -2.738546133041382, 0.48681139945983887, 0.421875, 0.360595703125, -0.7373046875, 
102, 475870596, 3.359372138977051, 7.155220031738281, 35.14274215698242, -1.5449628829956055, 0.6206675171852112, 9.819636344909668, -0.22151190042495728, -2.782986640930176, 0.42917928099632263, 0.41845703125, 0.36572265625, -0.74169921875, 
103, 475878929, 3.357844591140747, 7.148904323577881, 35.17300796508789, -1.5505468845367432, 0.6076648235321045, 9.813365936279297, -0.3833426237106323, -2.7230746746063232, 0.3726743459701538, 0.42041015625, 0.364013671875, -0.73974609375, 
104, 475887262, 3.3543636798858643, 7.1262335777282715, 35.17493438720703, -1.5324410200119019, 0.6107469201087952, 9.804156303405762, -0.4458925724029541, -2.742490530014038, 0.3659633696079254, 0.41943359375, 0.36181640625, -0.73974609375, 
105, 475895595, 3.3518497943878174, 7.120904445648193, 35.196720123291016, -1.505020260810852, 0.6209701895713806, 9.794553756713867, -0.49525120854377747, -2.6157257556915283, 0.27078089118003845, 0.4208984375, 0.362548828125, -0.73828125, 
106, 475903928, 3.348928928375244, 7.101703643798828, 35.197792053222656, -1.5878286361694336, 0.5988233089447021, 9.859956741333008, -0.3653102517127991, -2.3341996669769287, 0.2371237874031067, 0.41748046875, 0.3603515625, -0.74072265625, 
107, 475912261, 3.34806752204895, 7.0981292724609375, 35.22410583496094, -1.5949373245239258, 0.6096333861351013, 9.833611488342285, -0.31387683749198914, -2.398696184158325, 0.33735230565071106, 0.42236328125, 0.364990234375, -0.73828125, 
108, 475920594, 3.345601797103882, 7.075950622558594, 35.226402282714844, -1.582472324371338, 0.5835440754890442, 9.839035987854004, -0.3282976448535919, -2.6858060359954834, 0.40084993839263916, 0.41943359375, 0.365234375, -0.7421875, 
109, 475928927, 3.3435401916503906, 7.0696306228637695, 35.251766204833984, -1.5826151371002197, 0.6216834187507629, 9.827278137207031, -0.47808966040611267, -2.737931251525879, 0.5160884857177734, 0.41943359375, 0.36474609375, -0.7431640625, 
110, 475937260, 3.3399767875671387, 7.046998500823975, 35.25456619262695, -1.5636816024780273, 0.6189132928848267, 9.869336128234863, -0.467997670173645, -2.7394680976867676, 0.46334871649742126, 0.42138671875, 0.363525390625, -0.73828125, 
111, 475945593, 3.3391427993774414, 7.040173053741455, 35.274757385253906, -1.5573369264602661, 0.5947088599205017, 9.849555969238281, -0.32381510734558105, -2.8188977241516113, 0.47244173288345337, 0.42041015625, 0.36474609375, -0.7412109375, 
112, 475953926, 3.3365542888641357, 7.017550468444824, 35.27670669555664, -1.5812318325042725, 0.6150146722793579, 9.80231761932373, -0.3379029929637909, -2.747997522354126, 0.35991841554641724, 0.41845703125, 0.361328125, -0.74169921875, 
113, 475962259, 3.335395574569702, 7.012206077575684, 35.29800796508789, -1.5658600330352783, 0.5759497880935669, 9.816812515258789, -0.35501328110694885, -2.6561708450317383, 0.3803073763847351, 0.4208984375, 0.364013671875, -0.73974609375, 
114, 475970592, 3.3314857482910156, 6.989933967590332, 35.30024337768555, -1.5611132383346558, 0.6085437536239624, 9.795595169067383, -0.5008607506752014, -2.7063488960266113, 0.39226922392845154, 0.419921875, 0.36279296875, -0.74169921875, 
115, 475978925, 3.3296396732330322, 6.985834121704102, 35.32288360595703, -1.5536710023880005, 0.6113775372505188, 9.825451850891113, -0.43923288583755493, -2.521362543106079, 0.3944207727909088, 0.42236328125, 0.362548828125, -0.74072265625, 
116, 475987258, 3.3271563053131104, 6.964210510253906, 35.32674789428711, -1.577379584312439, 0.5854960680007935, 9.834699630737305, -0.35270804166793823, -2.62074613571167, 0.5804057717323303, 0.4189453125, 0.3623046875, -0.74072265625, 
117, 475995591, 3.324995994567871, 6.9589314460754395, 35.35420608520508, -1.5757654905319214, 0.5999756455421448, 9.793364524841309, -0.4875413179397583, -2.670591354370117, 0.4559974670410156, 0.42041015625, 0.3642578125, -0.74169921875, 
118, 476003924, 3.3225185871124268, 6.935595989227295, 35.35752868652344, -1.5823746919631958, 0.5883107781410217, 9.84034252166748, -0.34530550241470337, -2.832242965698242, 0.5270001292228699, 0.423828125, 0.363037109375, -0.74267578125, 
119, 476012257, 3.3209567070007324, 6.92948055267334, 35.37976837158203, -1.5789847373962402, 0.6173253059387207, 9.822925567626953, -0.4163850247859955, -2.7859067916870117, 0.4996184706687927, 0.41845703125, 0.36279296875, -0.73828125, 
120, 476020590, 3.3170483112335205, 6.906104564666748, 35.381591796875, -1.5819339752197266, 0.607417106628418, 9.840752601623535, -0.4947902262210846, -2.8506085872650146, 0.34580501914024353, 0.421875, 0.363525390625, -0.7412109375, 
121, 476028923, 3.3143088817596436, 6.900018215179443, 35.40300750732422, -1.5500680208206177, 0.6231856942176819, 9.834182739257812, -0.548759400844574, -2.804630756378174, 0.4015671908855438, 0.41943359375, 0.366943359375, -0.7392578125, 
122, 476037256, 3.3102786540985107, 6.877208709716797, 35.40492630004883, -1.558823585510254, 0.6098048090934753, 9.8373384475708, -0.510722279548645, -2.78501033782959, 0.3513889014720917, 0.421875, 0.364013671875, -0.740234375, 
123, 476045589, 3.3074605464935303, 6.871298313140869, 35.422264099121094, -1.568345546722412, 0.60017991065979, 9.827733039855957, -0.5539847016334534, -2.8027865886688232, 0.331230491399765, 0.42138671875, 0.364013671875, -0.740234375, 
124, 476053922, 3.303203821182251, 6.848814010620117, 35.424598693847656, -1.5800491571426392, 0.6085143089294434, 9.87157154083252, -0.5436620712280273, -2.7472805976867676, 0.3967261016368866, 0.4228515625, 0.362548828125, -0.7412109375, 
125, 476062255, 3.300889015197754, 6.844042778015137, 35.4488410949707, -1.578850507736206, 0.5825037956237793, 9.828213691711426, -0.5131299495697021, -2.6690032482147217, 0.47482386231422424, 0.42041015625, 0.361083984375, -0.73779296875, 
126, 476070588, 3.2971441745758057, 6.821532726287842, 35.451839447021484, -1.580091953277588, 0.6112450957298279, 9.831198692321777, -0.4922031760215759, -2.749483585357666, 0.47556671500205994, 0.42138671875, 0.363525390625, -0.7421875, 
127, 476078921, 3.2946090698242188, 6.815463542938232, 35.47774124145508, -1.5597084760665894, 0.6067602634429932, 9.809165954589844, -0.5410494804382324, -2.841207981109619, 0.5029483437538147, 0.41943359375, 0.36474609375, -0.740234375, 
128, 476087254, 3.291624069213867, 6.794903755187988, 35.48115158081055, -1.5602930784225464, 0.5990216135978699, 9.813482284545898, -0.40639543533325195, -2.5172133445739746, 0.5083016753196716, 0.42041015625, 0.365478515625, -0.73828125, 
129, 476095587, 3.290346622467041, 6.790025234222412, 35.5031852722168, -1.6035003662109375, 0.5625268220901489, 9.805585861206055, -0.4052172005176544, -2.7109851837158203, 0.5814047455787659, 0.41845703125, 0.3642578125, -0.73974609375, 
130, 476103920, 3.287384510040283, 6.766720771789551, 35.506866455078125, -1.573716402053833, 0.6184313893318176, 9.809080123901367, -0.4066516160964966, -2.8487131595611572, 0.5579933524131775, 0.42041015625, 0.362548828125, -0.73876953125, 
131, 476112253, 3.28633713722229, 6.759816646575928, 35.52847671508789, -1.5858126878738403, 0.6142967939376831, 9.847373962402344, -0.3775794506072998, -2.9704573154449463, 0.6190064549446106, 0.4189453125, 0.3603515625, -0.73876953125, 
132, 476120586, 3.2827141284942627, 6.73594856262207, 35.533180236816406, -1.590968370437622, 0.6047526597976685, 9.844939231872559, -0.4999898672103882, -2.9126460552215576, 0.681966245174408, 0.423828125, 0.363525390625, -0.7431640625, 
133, 476128919, 3.2804837226867676, 6.728976249694824, 35.558780670166016, -1.5741978883743286, 0.5967427492141724, 9.842989921569824, -0.5281142592430115, -2.9992733001708984, 0.6365777254104614, 0.42041015625, 0.367919921875, -0.7373046875, 
134, 476137252, 3.2776894569396973, 6.70399284362793, 35.563026428222656, -1.58098566532135, 0.6018950343132019, 9.84077262878418, -0.3939725160598755, -3.052499771118164, 0.633888304233551, 0.421875, 0.359130859375, -0.74072265625, 
135, 476145585, 3.276083469390869, 6.695978164672852, 35.584754943847656, -1.587361216545105, 0.6051948070526123, 9.845860481262207, -0.46113312244415283, -3.1409969329833984, 0.7062228918075562, 0.4208984375, 0.363525390625, -0.740234375, 
136, 476153918, 3.2727646827697754, 6.6709065437316895, 35.589576721191406, -1.5817521810531616, 0.6011018753051758, 9.833702087402344, -0.4641555845737457, -3.0638980865478516, 0.700049877166748, 0.41796875, 0.3642578125, -0.7373046875, 
137, 476162251, 3.2700564861297607, 6.663951396942139, 35.612579345703125, -1.578212022781372, 0.6207623481750488, 9.816324234008789, -0.5784975290298462, -3.0414085388183594, 0.5560978651046753, 0.41748046875, 0.361328125, -0.73681640625, 
138, 476170584, 3.2658722400665283, 6.6393256187438965, 35.61650085449219, -1.571423888206482, 0.6000367999076843, 9.800243377685547, -0.5576474666595459, -3.0219929218292236, 0.5883205533027649, 0.419921875, 0.3662109375, -0.74169921875, 
139, 476178917, 3.264359951019287, 6.633572101593018, 35.64043426513672, -1.575071096420288, 0.5845373272895813, 9.849108695983887, -0.4502982497215271, -2.9129281044006348, 0.6443901658058167, 0.41845703125, 0.36279296875, -0.7392578125, 
140, 476187250, 3.2606639862060547, 6.6101765632629395, 35.644657135009766, -1.5791431665420532, 0.6080275177955627, 9.83036994934082, -0.5019365549087524, -2.8780922889709473, 0.6133713126182556, 0.41845703125, 0.36376953125, -0.73876953125, 
141, 476195583, 3.259045124053955, 6.604457855224609, 35.666568756103516, -1.5664644241333008, 0.6148072481155396, 9.819568634033203, -0.44924813508987427, -2.9355194568634033, 0.5277684926986694, 0.4189453125, 0.3642578125, -0.7412109375, 
142, 476203916, 3.2543811798095703, 6.580852508544922, 35.66946792602539, -1.5770721435546875, 0.5994539856910706, 9.84864616394043, -0.6007306575775146, -2.916308641433716, 0.4573294222354889, 0.42236328125, 0.362060546875, -0.73779296875, 
143, 476212249, 3.251798152923584, 6.574686527252197, 35.691062927246094, -1.5915709733963013, 0.5696814656257629, 9.850325584411621, -0.577191174030304, -3.0055999755859375, 0.5907027125358582, 0.42041015625, 0.361572265625, -0.73828125, 
144, 476220582, 3.24865984916687, 6.549557685852051, 35.695037841796875, -1.6125273704528809, 0.5716418027877808, 9.801371574401855, -0.43008866906166077, -3.096709728240967, 0.5920602083206177, 0.421875, 0.362060546875, -0.74072265625, 
145, 476228915, 3.2460360527038574, 6.540970802307129, 35.71897506713867, -1.591925859451294, 0.5908858180046082, 9.82320785522461, -0.5804186463356018, -3.318913698196411, 0.5977979302406311, 0.42041015625, 0.365478515625, -0.73828125, 
146, 476237248, 3.242058515548706, 6.514776706695557, 35.72237777709961, -1.5542213916778564, 0.5953238606452942, 9.820049285888672, -0.5247331857681274, -3.2320809364318848, 0.53230220079422, 0.4267578125, 0.364990234375, -0.73681640625, 
147, 476245581, 3.2397947311401367, 6.506186485290527, 35.74431610107422, -1.5694490671157837, 0.6095876097679138, 9.824108123779297, -0.5335445404052734, -3.3487541675567627, 0.582967221736908, 0.419921875, 0.364990234375, -0.73876953125, 
148, 476253914, 3.236178159713745, 6.480043888092041, 35.74707794189453, -1.5771358013153076, 0.570587694644928, 9.834633827209473, -0.47171175479888916, -3.2370500564575195, 0.45179668068885803, 0.42041015625, 0.36328125, -0.74267578125, 
149, 476262247, 3.2342798709869385, 6.473639011383057, 35.767974853515625, -1.5644960403442383, 0.5973352193832397, 9.838801383972168, -0.4853641986846924, -3.1092607975006104, 0.5102227330207825, 0.42333984375, 0.363037109375, -0.74072265625, 
150, 476270580, 3.2310678958892822, 6.448752403259277, 35.771236419677734, -1.579750418663025, 0.5914940237998962, 9.846375465393066, -0.4296531677246094, -3.088282585144043, 0.5034605860710144, 0.421875, 0.364013671875, -0.73876953125, 
151, 476278913, 3.2292416095733643, 6.4424285888671875, 35.7977409362793, -1.5904321670532227, 0.5987571477890015, 9.8133544921875, -0.48236727714538574, -3.1193783283233643, 0.5510774850845337, 0.4208984375, 0.363525390625, -0.7373046875, 
152, 476287246, 3.22628116607666, 6.417349815368652, 35.801143646240234, -1.6045469045639038, 0.6019670367240906, 9.835655212402344, -0.4015287458896637, -3.114819049835205, 0.5171385407447815, 0.4228515625, 0.366455078125, -0.7373046875, 
153, 476295579, 3.2246546745300293, 6.4111857414245605, 35.82380676269531, -1.5944554805755615, 0.570430338382721, 9.817365646362305, -0.4605695903301239, -3.1261918544769287, 0.5650883913040161, 0.4208984375, 0.364990234375, -0.74169921875, 
154, 476303912, 3.221550464630127, 6.3847761154174805, 35.827850341796875, -1.5741264820098877, 0.5916252732276917, 9.831875801086426, -0.42745038866996765, -3.2758302688598633, 0.6009995937347412, 0.41943359375, 0.36376953125, -0.740234375, 
155, 476312245, 3.219317674636841, 6.377533912658691, 35.84970474243164, -1.5551692247390747, 0.6019394397735596, 9.824400901794434, -0.5258859395980835, -3.2879714965820312, 0.5109400153160095, 0.42041015625, 0.363037109375, -0.7353515625, 
156, 476320578, 3.216214179992676, 6.351768970489502, 35.85258102416992, -1.588257908821106, 0.5742680430412292, 9.838680267333984, -0.41256847977638245, -3.213024377822876, 0.4547423720359802, 0.42041015625, 0.36279296875, -0.74072265625, 
157, 476328911, 3.215712308883667, 6.345977306365967, 35.87775421142578, -1.6021463871002197, 0.5704543590545654, 9.837099075317383, -0.33180680871009827, -3.132134437561035, 0.588371753692627, 0.421875, 0.363525390625, -0.73828125, 
158, 476337244, 3.2132976055145264, 6.320708274841309, 35.881935119628906, -1.5949956178665161, 0.5919916033744812, 9.84521198272705, -0.3460739552974701, -3.1502180099487305, 0.6052003502845764, 0.42041015625, 0.364501953125, -0.73876953125, 
159, 476345577, 3.2125062942504883, 6.314385414123535, 35.90715789794922, -1.5974949598312378, 0.5974022746086121, 9.824504852294922, -0.36454179883003235, -3.223961353302002, 0.6071726679801941, 0.4208984375, 0.366455078125, -0.73779296875, 
160, 476353910, 3.21028995513916, 6.288417816162109, 35.911495208740234, -1.5927742719650269, 0.5862488746643066, 9.80313491821289, -0.32455796003341675, -3.2390735149383545, 0.6269468665122986, 0.42041015625, 0.36474609375, -0.74169921875, 
161, 476362243, 3.209324359893799, 6.281006336212158, 35.93437576293945, -1.5874114036560059, 0.5945411324501038, 9.862687110900879, -0.3899511396884918, -3.3846397399902344, 0.6139604449272156, 0.41943359375, 0.36279296875, -0.740234375, 
162, 476370576, 3.2067344188690186, 6.254188060760498, 35.93931579589844, -1.5947784185409546, 0.5928415060043335, 9.822161674499512, -0.3766061067581177, -3.3424530029296875, 0.7006134390830994, 0.42236328125, 0.367919921875, -0.73974609375, 
163, 476378909, 3.2049832344055176, 6.247562885284424, 35.96210479736328, -1.5510107278823853, 0.5901765823364258, 9.803504943847656, -0.48239290714263916, -3.323241949081421, 0.5881924629211426, 0.421875, 0.363525390625, -0.740234375, 
164, 476387242, 3.202118396759033, 6.221951961517334, 35.96598434448242, -1.5927053689956665, 0.5846614241600037, 9.82063102722168, -0.3955606520175934, -3.2105393409729004, 0.5657800436019897, 0.42236328125, 0.365966796875, -0.73974609375, 
165, 476395575, 3.200835704803467, 6.214849472045898, 35.991024017333984, -1.5965557098388672, 0.558795154094696, 9.812589645385742, -0.4248633086681366, -3.408895969390869, 0.5643200278282166, 0.41943359375, 0.36279296875, -0.74365234375, 
166, 476403908, 3.1991515159606934, 6.188304901123047, 35.99506378173828, -1.5502681732177734, 0.5999378561973572, 9.818021774291992, -0.2560654878616333, -3.328134298324585, 0.5878082513809204, 0.41796875, 0.365234375, -0.73974609375, 
167, 476412241, 3.1987996101379395, 6.183202266693115, 36.0194091796875, -1.5757167339324951, 0.5797937512397766, 9.833799362182617, -0.3182312846183777, -3.1966311931610107, 0.6121417880058289, 0.4189453125, 0.36328125, -0.73876953125, 
168, 476420574, 3.1970102787017822, 6.159069061279297, 36.023460388183594, -1.5821340084075928, 0.59433913230896, 9.830080032348633, -0.2695898413658142, -3.0475051403045654, 0.5699551701545715, 0.42041015625, 0.363525390625, -0.740234375, 
169, 476428907, 3.1970951557159424, 6.154735565185547, 36.04623031616211, -1.5872323513031006, 0.5814246535301208, 9.829564094543457, -0.25739747285842896, -3.135950803756714, 0.5198537111282349, 0.4189453125, 0.36669921875, -0.7412109375, 
170, 476437240, 3.1953253746032715, 6.12958288192749, 36.05169677734375, -1.5773849487304688, 0.6068007349967957, 9.82461929321289, -0.2849583625793457, -3.164767026901245, 0.743927001953125, 0.42138671875, 0.360107421875, -0.73974609375, 
171, 476445573, 3.195882558822632, 6.125357627868652, 36.07232666015625, -1.577378273010254, 0.6100141406059265, 9.858856201171875, -0.2061689794063568, -3.1544697284698486, 0.5341463685035706, 0.41845703125, 0.365234375, -0.74072265625, 
172, 476453906, 3.194349527359009, 6.099054336547852, 36.0770149230957, -1.579814076423645, 0.5993035435676575, 9.82142448425293, -0.24505139887332916, -3.3156607151031494, 0.657991349697113, 0.4189453125, 0.36376953125, -0.7421875, 
173, 476462239, 3.1949963569641113, 6.094191074371338, 36.096981048583984, -1.544568419456482, 0.6187355518341064, 9.831026077270508, -0.1964355707168579, -3.261153221130371, 0.5102739334106445, 0.42041015625, 0.36328125, -0.740234375, 
174, 476470572, 3.1933655738830566, 6.069815635681152, 36.10090255737305, -1.5717527866363525, 0.5968613028526306, 9.84882640838623, -0.2477152794599533, -3.09696626663208, 0.5525375008583069, 0.4189453125, 0.3623046875, -0.73974609375, 
175, 476478905, 3.194471597671509, 6.066335201263428, 36.123165130615234, -1.5879939794540405, 0.6227495670318604, 9.838641166687012, -0.14597554504871368, -3.125192880630493, 0.47613024711608887, 0.41748046875, 0.36279296875, -0.73779296875, 
176, 476487238, 3.1934590339660645, 6.042055130004883, 36.1269645690918, -1.5639759302139282, 0.6138879060745239, 9.764220237731934, -0.17125678062438965, -3.0925347805023193, 0.5347099900245667, 0.419921875, 0.364990234375, -0.73828125, 
177, 476495571, 3.1947059631347656, 6.038518905639648, 36.14886474609375, -1.596981406211853, 0.5732436776161194, 9.853900909423828, -0.1366775631904602, -3.161616325378418, 0.5100178718566895, 0.42138671875, 0.363037109375, -0.73828125, 
178, 476503904, 3.1945769786834717, 6.015047073364258, 36.15288162231445, -1.5937336683273315, 0.5770741105079651, 9.836448669433594, -0.06815948337316513, -3.00319242477417, 0.552281379699707, 0.423828125, 0.363525390625, -0.7392578125, 
179, 476512237, 3.195823907852173, 6.011964797973633, 36.17795944213867, -1.5847537517547607, 0.5899068713188171, 9.82584285736084, -0.15368540585041046, -3.131058692932129, 0.650358259677887, 0.4189453125, 0.3662109375, -0.73876953125, 
180, 476520570, 3.1955769062042236, 5.988007068634033, 36.18281173706055, -1.603411078453064, 0.5917938351631165, 9.856095314025879, -0.09392740577459335, -3.062643051147461, 0.65476393699646, 0.42138671875, 0.363037109375, -0.7392578125, 
181, 476528903, 3.196967601776123, 5.984229564666748, 36.20480728149414, -1.5921258926391602, 0.5603224039077759, 9.879770278930664, -0.13549931347370148, -3.2509586811065674, 0.6359118223190308, 0.41845703125, 0.36474609375, -0.74072265625, 
182, 476537236, 3.1966257095336914, 5.957369804382324, 36.209720611572266, -1.6094229221343994, 0.6011784672737122, 9.853381156921387, -0.10553065687417984, -3.418757677078247, 0.6764847636222839, 0.42236328125, 0.364013671875, -0.740234375, 
183, 476545569, 3.1986711025238037, 5.952630519866943, 36.23299789428711, -1.5864062309265137, 0.5881341695785522, 9.852529525756836, -0.06290856748819351, -3.398010492324829, 0.710884690284729, 0.42333984375, 0.363037109375, -0.74267578125, 
184, 476553902, 3.1986329555511475, 5.925954818725586, 36.23899841308594, -1.583483099937439, 0.6033235192298889, 9.80586051940918, -0.08201677352190018, -3.395064353942871, 0.8019688725471497, 0.4189453125, 0.36279296875, -0.73828125, 
185, 476562235, 3.201258659362793, 5.920685291290283, 36.26520919799805, -1.569499135017395, 0.6086089611053467, 9.826135635375977, 0.008593576028943062, -3.500159978866577, 0.6745637059211731, 0.4169921875, 0.36279296875, -0.73583984375, 
186, 476570568, 3.2006845474243164, 5.894867420196533, 36.27073669433594, -1.5802724361419678, 0.6088712215423584, 9.833843231201172, -0.13977688550949097, -3.3041086196899414, 0.7393165230751038, 0.4208984375, 0.364013671875, -0.73828125, 
187, 476578901, 3.2023887634277344, 5.8920979499816895, 36.29228591918945, -1.5421457290649414, 0.6286775469779968, 9.811745643615723, -0.09392739087343216, -3.2411224842071533, 0.534171998500824, 0.41943359375, 0.36083984375, -0.73828125, 
188, 476587234, 3.2032406330108643, 5.869003772735596, 36.296958923339844, -1.5518882274627686, 0.56461501121521, 9.846165657043457, 0.04120049998164177, -2.991563320159912, 0.6165730357170105, 0.4208984375, 0.363037109375, -0.73974609375, 
189, 476595567, 3.2050671577453613, 5.867188453674316, 36.32099151611328, -1.574768304824829, 0.6166308522224426, 9.82217788696289, -0.08437329530715942, -3.16074538230896, 0.5145003795623779, 0.421875, 0.362060546875, -0.74072265625, 
190, 476603900, 3.204355001449585, 5.842790126800537, 36.32530212402344, -1.5724742412567139, 0.570815920829773, 9.826290130615234, -0.14215900003910065, -3.1573898792266846, 0.5810717344284058, 0.419921875, 0.36376953125, -0.73876953125, 
191, 476612233, 3.2061588764190674, 5.840161323547363, 36.350791931152344, -1.5616257190704346, 0.6072697043418884, 9.830510139465332, -0.09858918935060501, -3.2843596935272217, 0.6244622468948364, 0.42041015625, 0.363525390625, -0.73974609375, 
192, 476620566, 3.2059524059295654, 5.816427230834961, 36.355323791503906, -1.5922963619232178, 0.5879538655281067, 9.806659698486328, -0.08332310616970062, -3.0858237743377686, 0.6001543998718262, 0.42236328125, 0.364013671875, -0.73779296875, 
193, 476628899, 3.2077369689941406, 5.814828872680664, 36.37934875488281, -1.5834485292434692, 0.6039219498634338, 9.854938507080078, -0.10865557938814163, -3.191046953201294, 0.6762798428535461, 0.4208984375, 0.364013671875, -0.73681640625, 
194, 476637232, 3.2072503566741943, 5.790388107299805, 36.3839111328125, -1.578226089477539, 0.5966955423355103, 9.842684745788574, -0.11833778023719788, -3.17916202545166, 0.6045599579811096, 0.4189453125, 0.36376953125, -0.73779296875, 
195, 476645565, 3.208494186401367, 5.788506031036377, 36.40810775756836, -1.5955147743225098, 0.6116455793380737, 9.843701362609863, -0.1816817820072174, -3.2581562995910645, 0.7432098388671875, 0.4208984375, 0.363525390625, -0.73974609375, 
196, 476653898, 3.2081034183502197, 5.763713359832764, 36.41304016113281, -1.5723153352737427, 0.6224856972694397, 9.822701454162598, -0.11021804809570312, -3.227086305618286, 0.6482322812080383, 0.41796875, 0.36181640625, -0.7392578125, 
197, 476662231, 3.209617853164673, 5.761582851409912, 36.437618255615234, -1.5669158697128296, 0.6111564040184021, 9.85450267791748, -0.15061171352863312, -3.327238082885742, 0.7168528437614441, 0.41845703125, 0.36376953125, -0.73828125, 
198, 476670564, 3.208451271057129, 5.735775470733643, 36.44316101074219, -1.5716125965118408, 0.6098083257675171, 9.811985969543457, -0.21113815903663635, -3.3531084060668945, 0.7260483503341675, 0.419921875, 0.363037109375, -0.736328125, 
199, 476678897, 3.209106206893921, 5.7334442138671875, 36.46767807006836, -1.5696992874145508, 0.6153019070625305, 9.800223350524902, -0.2648512125015259, -3.384153127670288, 0.7775842547416687, 0.4228515625, 0.360107421875, -0.73779296875, 
200, 476687230, 3.2078418731689453, 5.708616256713867, 36.472564697265625, -1.5447781085968018, 0.6146170496940613, 9.81758975982666, -0.2159024029970169, -3.249319553375244, 0.6398307681083679, 0.4228515625, 0.364501953125, -0.74072265625, 
201, 476695563, 3.2087244987487793, 5.70923376083374, 36.49996566772461, -1.548155426979065, 0.6018160581588745, 9.811615943908691, -0.23408851027488708, -3.072120189666748, 0.6760494112968445, 0.42041015625, 0.365478515625, -0.73828125, 
202, 476703896, 3.2064452171325684, 5.687493801116943, 36.50444793701172, -1.5699783563613892, 0.6147022843360901, 9.822333335876465, -0.3311920464038849, -2.8902587890625, 0.5666252970695496, 0.421875, 0.361572265625, -0.7392578125, 
203, 476712229, 3.206317186355591, 5.688936710357666, 36.52714920043945, -1.5730525255203247, 0.5995950102806091, 9.847424507141113, -0.3464837670326233, -3.0131561756134033, 0.5420868992805481, 0.421875, 0.364013671875, -0.73876953125, 
204, 476720562, 3.2042698860168457, 5.664484977722168, 36.531883239746094, -1.5904206037521362, 0.6069501042366028, 9.852068901062012, -0.3072171211242676, -3.223935604095459, 0.6130382418632507, 0.4169921875, 0.3623046875, -0.7353515625, 
205, 476728895, 3.2043046951293945, 5.665083408355713, 36.55463409423828, -1.5652574300765991, 0.573403000831604, 9.841351509094238, -0.3337022662162781, -3.1496291160583496, 0.5605291128158569, 0.41943359375, 0.36376953125, -0.7412109375, 
206, 476737228, 3.2017250061035156, 5.641884803771973, 36.55970764160156, -1.5895400047302246, 0.6246539950370789, 9.85831069946289, -0.37519729137420654, -3.080828905105591, 0.6416237354278564, 0.4228515625, 0.362548828125, -0.7392578125, 
207, 476745561, 3.2009732723236084, 5.643221855163574, 36.581298828125, -1.5758514404296875, 0.6024088263511658, 9.824811935424805, -0.4294227063655853, -3.09806752204895, 0.5752061009407043, 0.419921875, 0.36328125, -0.73828125, 
208, 476753894, 3.197968006134033, 5.6178059577941895, 36.58566665649414, -1.5546977519989014, 0.6365005970001221, 9.822465896606445, -0.4187159240245819, -3.360792875289917, 0.5716457366943359, 0.419921875, 0.3623046875, -0.7392578125, 
209, 476762227, 3.197474956512451, 5.6182098388671875, 36.6090202331543, -1.5674833059310913, 0.6160943508148193, 9.833951950073242, -0.40701016783714294, -3.2463226318359375, 0.6242061257362366, 0.42138671875, 0.363525390625, -0.74072265625, 
210, 476770560, 3.194751501083374, 5.5941267013549805, 36.614158630371094, -1.5676103830337524, 0.5934838056564331, 9.864389419555664, -0.39394691586494446, -3.2055959701538086, 0.6500764489173889, 0.42236328125, 0.362060546875, -0.74169921875, 
211, 476778893, 3.194535970687866, 5.5954413414001465, 36.637332916259766, -1.5640678405761719, 0.6045961976051331, 9.813873291015625, -0.38142159581184387, -3.1744492053985596, 0.6315829753875732, 0.4189453125, 0.3642578125, -0.74072265625, 
212, 476787226, 3.191659450531006, 5.572669506072998, 36.642127990722656, -1.559428334236145, 0.6039667725563049, 9.833044052124023, -0.4083420932292938, -3.060798406600952, 0.5974136590957642, 0.42333984375, 0.363525390625, -0.7421875, 
213, 476795559, 3.1912102699279785, 5.575290203094482, 36.66324234008789, -1.5682780742645264, 0.6129699945449829, 9.827851295471191, -0.3976866602897644, -3.0619261264801025, 0.4803566038608551, 0.421875, 0.361572265625, -0.73828125, 
214, 476803892, 3.1892945766448975, 5.552557945251465, 36.66804885864258, -1.5692721605300903, 0.6055477261543274, 9.812464714050293, -0.2935647964477539, -3.065178871154785, 0.5950571298599243, 0.421875, 0.362548828125, -0.73779296875, 
215, 476812225, 3.188478708267212, 5.556228160858154, 36.693302154541016, -1.5750387907028198, 0.6125602722167969, 9.819823265075684, -0.45455020666122437, -2.9715588092803955, 0.5428041219711304, 0.42529296875, 0.363037109375, -0.74169921875, 
216, 476820558, 3.18548846244812, 5.5337042808532715, 36.697479248046875, -1.593168020248413, 0.6048073768615723, 9.855803489685059, -0.4139004051685333, -3.0538828372955322, 0.5173435807228088, 0.419921875, 0.36279296875, -0.740234375, 
217, 476828891, 3.1849541664123535, 5.537542819976807, 36.722476959228516, -1.5775318145751953, 0.597126841545105, 9.822226524353027, -0.4209187626838684, -2.991332769393921, 0.4966984689235687, 0.4208984375, 0.361572265625, -0.7392578125, 
218, 476837224, 3.181260824203491, 5.515305995941162, 36.725486755371094, -1.5724438428878784, 0.6113553047180176, 9.810164451599121, -0.48508238792419434, -3.0393593311309814, 0.3716241419315338, 0.4208984375, 0.3623046875, -0.74267578125, 
219, 476845557, 3.1798207759857178, 5.517866611480713, 36.7496337890625, -1.5545114278793335, 0.6122517585754395, 9.818704605102539, -0.534466564655304, -3.1842591762542725, 0.5259754061698914, 0.42138671875, 0.36083984375, -0.74169921875, 
220, 476853890, 3.175597906112671, 5.494590759277344, 36.75348663330078, -1.5800893306732178, 0.6026740074157715, 9.850050926208496, -0.5581598281860352, -3.167405128479004, 0.4763863980770111, 0.42138671875, 0.364501953125, -0.73876953125, 
221, 476862223, 3.1749446392059326, 5.497278213500977, 36.77811050415039, -1.5735610723495483, 0.5728545188903809, 9.83920955657959, -0.4488126337528229, -3.206697702407837, 0.5674706101417542, 0.42138671875, 0.364501953125, -0.7392578125, 
222, 476870556, 3.1711206436157227, 5.473386764526367, 36.78335189819336, -1.5626330375671387, 0.6108261942863464, 9.823236465454102, -0.5274227261543274, -3.2425830364227295, 0.6418799757957458, 0.4228515625, 0.361572265625, -0.73974609375, 
223, 476878889, 3.1696393489837646, 5.47712516784668, 36.80767822265625, -1.5835638046264648, 0.6067981123924255, 9.843209266662598, -0.549681544303894, -3.118866205215454, 0.569878339767456, 0.42041015625, 0.364990234375, -0.73486328125, 
224, 476887222, 3.1664235591888428, 5.454448223114014, 36.81182098388672, -1.572807788848877, 0.5878552794456482, 9.835733413696289, -0.4415893852710724, -3.11456298828125, 0.5002844929695129, 0.4208984375, 0.362060546875, -0.73876953125, 
225, 476895555, 3.1646766662597656, 5.458250999450684, 36.83553695678711, -1.5746607780456543, 0.5894813537597656, 9.811384201049805, -0.591458261013031, -3.1484248638153076, 0.624436616897583, 0.419921875, 0.364501953125, -0.73828125, 
226, 476903888, 3.1612296104431152, 5.436188697814941, 36.83935546875, -1.5681835412979126, 0.6124659776687622, 9.825179100036621, -0.466537743806839, -3.0550355911254883, 0.45266759395599365, 0.4228515625, 0.361083984375, -0.7392578125, 
227, 476912221, 3.16017484664917, 5.4410719871521, 36.85991668701172, -1.5858732461929321, 0.610078752040863, 9.861363410949707, -0.48474937677383423, -3.072401762008667, 0.3583303391933441, 0.41796875, 0.3642578125, -0.7412109375, 
228, 476920554, 3.156284809112549, 5.419876575469971, 36.8646240234375, -1.6008248329162598, 0.5917753577232361, 9.838156700134277, -0.5293694138526917, -2.9565744400024414, 0.5517946481704712, 0.4208984375, 0.36279296875, -0.7412109375, 
229, 476928887, 3.1543467044830322, 5.424768924713135, 36.884002685546875, -1.604467749595642, 0.5839697122573853, 9.835915565490723, -0.6071342825889587, -3.104829788208008, 0.4729028344154358, 0.41796875, 0.36376953125, -0.740234375, 
230, 476937220, 3.1505677700042725, 5.402797698974609, 36.88782501220703, -1.5601903200149536, 0.6155976057052612, 9.823702812194824, -0.5062909126281738, -3.0662801265716553, 0.44813382625579834, 0.4228515625, 0.362060546875, -0.74072265625, 
231, 476945553, 3.1501922607421875, 5.408829689025879, 36.90949249267578, -1.589447021484375, 0.5882405042648315, 9.82398796081543, -0.4332391917705536, -3.0056257247924805, 0.6071470379829407, 0.4189453125, 0.3642578125, -0.73974609375, 
232, 476953886, 3.1469478607177734, 5.386731147766113, 36.91332244873047, -1.563314437866211, 0.6350640654563904, 9.813799858093262, -0.44427889585494995, -3.0915868282318115, 0.4463408291339874, 0.419921875, 0.365966796875, -0.740234375, 
233, 476962219, 3.146638870239258, 5.391361236572266, 36.934967041015625, -1.5696791410446167, 0.5886926651000977, 9.842692375183105, -0.42137977480888367, -3.220400810241699, 0.5296639204025269, 0.41943359375, 0.36474609375, -0.73828125, 
234, 476970552, 3.1437530517578125, 5.36948823928833, 36.93885803222656, -1.586751103401184, 0.5985408425331116, 9.775989532470703, -0.39968451857566833, -3.075654983520508, 0.44897913932800293, 0.42138671875, 0.362060546875, -0.74072265625, 
235, 476978885, 3.1425867080688477, 5.375425338745117, 36.96026611328125, -1.563077449798584, 0.608131468296051, 9.817129135131836, -0.5293949842453003, -3.102754592895508, 0.5149101614952087, 0.4189453125, 0.359375, -0.7392578125, 
236, 476987218, 3.13911771774292, 5.3529052734375, 36.96528244018555, -1.560171365737915, 0.5928654670715332, 9.823369979858398, -0.48344308137893677, -3.1562373638153076, 0.5843247175216675, 0.41845703125, 0.3642578125, -0.7392578125, 
237, 476995551, 3.139540910720825, 5.359766960144043, 36.9904899597168, -1.5780783891677856, 0.5855568051338196, 9.82098388671875, -0.353681355714798, -3.0264244079589844, 0.6224387884140015, 0.41845703125, 0.36181640625, -0.7412109375, 
238, 477003884, 3.136542797088623, 5.337719917297363, 36.995506286621094, -1.600642442703247, 0.6074420809745789, 9.841546058654785, -0.4275527894496918, -3.1124625205993652, 0.5783054232597351, 0.4228515625, 0.362548828125, -0.73779296875, 
239, 477012217, 3.1365628242492676, 5.343861103057861, 37.0178337097168, -1.58390212059021, 0.5923147797584534, 9.822325706481934, -0.3939981460571289, -3.1600282192230225, 0.5105044841766357, 0.421875, 0.365478515625, -0.73974609375, 
240, 477020550, 3.1326801776885986, 5.321544170379639, 37.021949768066406, -1.5737124681472778, 0.6208165287971497, 9.835766792297363, -0.5225816369056702, -3.161820888519287, 0.4716220498085022, 0.421875, 0.365966796875, -0.73779296875, 
241, 477028883, 3.132603168487549, 5.328251838684082, 37.0451774597168, -1.5828152894973755, 0.5749394297599792, 9.82083511352539, -0.4204064607620239, -3.1277289390563965, 0.6205176711082458, 0.42138671875, 0.366455078125, -0.740234375, 
242, 477037216, 3.130068778991699, 5.306609630584717, 37.04996109008789, -1.5807418823242188, 0.600333034992218, 9.81118106842041, -0.3685632646083832, -3.0883853435516357, 0.54239422082901, 0.42236328125, 0.361083984375, -0.73779296875, 
243, 477045549, 3.1301822662353516, 5.313625335693359, 37.07295608520508, -1.5593106746673584, 0.5809685587882996, 9.835536003112793, -0.39955639839172363, -3.131237506866455, 0.6127820611000061, 0.41796875, 0.36572265625, -0.73876953125, 
244, 477053882, 3.1275346279144287, 5.2917351722717285, 37.078514099121094, -1.5794638395309448, 0.5791103839874268, 9.846413612365723, -0.3918209969997406, -3.124911308288574, 0.6320953369140625, 0.421875, 0.364013671875, -0.74365234375, 
245, 477062215, 3.1281025409698486, 5.298775672912598, 37.09832000732422, -1.5953388214111328, 0.599168062210083, 9.858965873718262, -0.34866100549697876, -3.16965913772583, 0.6195698976516724, 0.42138671875, 0.363525390625, -0.7392578125, 
246, 477070548, 3.126502275466919, 5.277979850769043, 37.104190826416016, -1.563137173652649, 0.6094974875450134, 9.84018325805664, -0.26923123002052307, -3.0032949447631836, 0.6588621735572815, 0.419921875, 0.36328125, -0.7392578125, 
247, 477078881, 3.1264171600341797, 5.28567361831665, 37.12757110595703, -1.5976811647415161, 0.6028289198875427, 9.824943542480469, -0.4199197292327881, -3.137129306793213, 0.5154480338096619, 0.42138671875, 0.363037109375, -0.7392578125, 
248, 477087214, 3.1232314109802246, 5.262755870819092, 37.13298797607422, -1.5864132642745972, 0.6002348065376282, 9.837779998779297, -0.45498567819595337, -3.2738068103790283, 0.6167523860931396, 0.4208984375, 0.363525390625, -0.73876953125, 
249, 477095547, 3.123203754425049, 5.269189834594727, 37.15675735473633, -1.5589152574539185, 0.613871157169342, 9.841691970825195, -0.4137980043888092, -3.3308753967285156, 0.48594048619270325, 0.42236328125, 0.362548828125, -0.740234375, 
250, 477103880, 3.12090802192688, 5.246304035186768, 37.16233444213867, -1.5657094717025757, 0.589887797832489, 9.841634750366211, -0.3507101535797119, -3.279979705810547, 0.6320697069168091, 0.41845703125, 0.36474609375, -0.73974609375, 
251, 477112213, 3.1211109161376953, 5.254014015197754, 37.18678283691406, -1.5807483196258545, 0.6120854616165161, 9.826613426208496, -0.40375715494155884, -3.2119991779327393, 0.6109635233879089, 0.421875, 0.364501953125, -0.73974609375, 
252, 477120546, 3.1182425022125244, 5.231383323669434, 37.1914176940918, -1.5438005924224854, 0.6365372538566589, 9.831365585327148, -0.4083165228366852, -3.2688376903533936, 0.51396244764328, 0.42236328125, 0.360595703125, -0.73876953125, 
253, 477128879, 3.1182684898376465, 5.240209102630615, 37.21390914916992, -1.5806117057800293, 0.5911660194396973, 9.830825805664062, -0.4224299490451813, -3.1210176944732666, 0.5272818207740784, 0.42529296875, 0.364013671875, -0.740234375, 
254, 477137212, 3.115797519683838, 5.21928596496582, 37.21902084350586, -1.5519341230392456, 0.5789745450019836, 9.85069465637207, -0.36602744460105896, -3.0725812911987305, 0.5571736693382263, 0.42041015625, 0.362548828125, -0.7392578125, 
255, 477145545, 3.1162188053131104, 5.227602958679199, 37.245574951171875, -1.5698816776275635, 0.612328827381134, 9.82871150970459, -0.38905462622642517, -3.215790271759033, 0.638012170791626, 0.42138671875, 0.363037109375, -0.73779296875, 
256, 477153878, 3.113969564437866, 5.205636978149414, 37.2503547668457, -1.5733662843704224, 0.6103602647781372, 9.823052406311035, -0.33859455585479736, -3.2123067378997803, 0.5184961557388306, 0.42236328125, 0.365478515625, -0.74072265625, 
257, 477162211, 3.1152191162109375, 5.214446544647217, 37.27335739135742, -1.5824249982833862, 0.5935214161872864, 9.851005554199219, -0.28449729084968567, -3.199960708618164, 0.5416769981384277, 0.4228515625, 0.364013671875, -0.74169921875, 
258, 477170544, 3.1135735511779785, 5.192002296447754, 37.278587341308594, -1.5632656812667847, 0.5947805643081665, 9.8500394821167, -0.2687189280986786, -3.2792110443115234, 0.5730031728744507, 0.42236328125, 0.362060546875, -0.73974609375, 
259, 477178877, 3.1133599281311035, 5.200505256652832, 37.30354309082031, -1.5827264785766602, 0.5935112237930298, 9.818649291992188, -0.4762455224990845, -3.2694778442382812, 0.6725145578384399, 0.42236328125, 0.362060546875, -0.73974609375, 
260, 477187210, 3.111051321029663, 5.179043292999268, 37.309288024902344, -1.567858099937439, 0.5705149173736572, 9.845566749572754, -0.356447696685791, -3.1703507900238037, 0.6250001192092896, 0.419921875, 0.36474609375, -0.73974609375, 
261, 477195543, 3.1114397048950195, 5.1868062019348145, 37.334327697753906, -1.5809776782989502, 0.613052487373352, 9.8158540725708, -0.40544772148132324, -3.3984711170196533, 0.670695960521698, 0.4189453125, 0.361328125, -0.7373046875, 
262, 477203876, 3.109799861907959, 5.165348052978516, 37.33995056152344, -1.5734175443649292, 0.5999040007591248, 9.808830261230469, -0.2738673985004425, -3.1843361854553223, 0.6084533929824829, 0.419921875, 0.361572265625, -0.73681640625, 
263, 477212209, 3.1108081340789795, 5.1752777099609375, 37.362857818603516, -1.5661604404449463, 0.6119261980056763, 9.844494819641113, -0.33126887679100037, -3.1805193424224854, 0.6086581945419312, 0.421875, 0.363525390625, -0.73779296875, 
264, 477220542, 3.1088061332702637, 5.154049873352051, 37.3678092956543, -1.5800641775131226, 0.6199490427970886, 9.797836303710938, -0.31021401286125183, -3.1735780239105225, 0.522056519985199, 0.419921875, 0.363037109375, -0.7373046875, 
265, 477228875, 3.110142230987549, 5.1640448570251465, 37.39158248901367, -1.585546851158142, 0.5903990864753723, 9.812262535095215, -0.29904618859291077, -3.210667371749878, 0.6311475038528442, 0.42333984375, 0.361083984375, -0.7392578125, 
266, 477237208, 3.1085636615753174, 5.143002986907959, 37.396522521972656, -1.5958689451217651, 0.6011307835578918, 9.839040756225586, -0.2596259117126465, -3.1643571853637695, 0.5157298445701599, 0.42138671875, 0.362060546875, -0.74072265625, 
267, 477245541, 3.110426902770996, 5.154129981994629, 37.42158508300781, -1.5742820501327515, 0.5800871253013611, 9.861370086669922, -0.23119409382343292, -3.1205313205718994, 0.5422149300575256, 0.421875, 0.364501953125, -0.73681640625, 
268, 477253874, 3.108729362487793, 5.1329145431518555, 37.42721176147461, -1.5523604154586792, 0.6166552901268005, 9.818066596984863, -0.2812955379486084, -3.192685842514038, 0.5956974029541016, 0.42333984375, 0.363037109375, -0.740234375, 
269, 477262207, 3.1100285053253174, 5.143311977386475, 37.449195861816406, -1.568161964416504, 0.6093135476112366, 9.834145545959473, -0.3042202591896057, -3.2480130195617676, 0.5540486574172974, 0.41845703125, 0.36181640625, -0.740234375, 
270, 477270540, 3.1085383892059326, 5.121338844299316, 37.45486068725586, -1.5826808214187622, 0.6148862242698669, 9.842923164367676, -0.25757676362991333, -3.2965521812438965, 0.6001031398773193, 0.42041015625, 0.361328125, -0.740234375, 
271, 477278873, 3.1095523834228516, 5.132409572601318, 37.476898193359375, -1.5659918785095215, 0.5978939533233643, 9.838273048400879, -0.3524262607097626, -3.197476387023926, 0.6675198674201965, 0.41845703125, 0.36328125, -0.73828125, 
272, 477287206, 3.1072983741760254, 5.111720085144043, 37.48285675048828, -1.5818699598312378, 0.5923393368721008, 9.852612495422363, -0.35306665301322937, -3.1544954776763916, 0.6235145330429077, 0.4208984375, 0.3623046875, -0.7412109375, 
273, 477295539, 3.1087522506713867, 5.123565673828125, 37.503299713134766, -1.5621393918991089, 0.6081498861312866, 9.853559494018555, -0.2990973889827728, -3.1452486515045166, 0.6185453534126282, 0.421875, 0.364013671875, -0.740234375, 
274, 477303872, 3.1058106422424316, 5.103724956512451, 37.50872039794922, -1.5571800470352173, 0.6019892692565918, 9.872634887695312, -0.4304215908050537, -3.0694048404693604, 0.5534852147102356, 0.421875, 0.363037109375, -0.73828125, 
275, 477312205, 3.107327461242676, 5.115745544433594, 37.53068542480469, -1.5721454620361328, 0.6005282402038574, 9.851802825927734, -0.287980854511261, -3.1677379608154297, 0.5125536918640137, 0.42041015625, 0.36474609375, -0.7412109375, 
276, 477320538, 3.10538387298584, 5.0958170890808105, 37.53635025024414, -1.5737414360046387, 0.5896028876304626, 9.834722518920898, -0.31254488229751587, -3.0907416343688965, 0.5770758390426636, 0.4208984375, 0.364013671875, -0.73876953125, 
277, 477328871, 3.1067028045654297, 5.108922004699707, 37.554969787597656, -1.5789406299591064, 0.6115946173667908, 9.82784366607666, -0.30908697843551636, -3.0783448219299316, 0.4488510489463806, 0.42138671875, 0.365966796875, -0.74072265625, 
278, 477337204, 3.104982376098633, 5.088957786560059, 37.561309814453125, -1.5779932737350464, 0.5931785702705383, 9.819467544555664, -0.2944612205028534, -3.104752779006958, 0.6563776135444641, 0.42138671875, 0.365478515625, -0.73876953125, 
279, 477345537, 3.1078219413757324, 5.103024959564209, 37.581581115722656, -1.579774260520935, 0.631813108921051, 9.806907653808594, -0.14156986773014069, -2.992716073989868, 0.5866044163703918, 0.42138671875, 0.365478515625, -0.74072265625, 
280, 477353870, 3.106482982635498, 5.08267068862915, 37.58768081665039, -1.567319393157959, 0.5985240340232849, 9.805967330932617, -0.24607594311237335, -3.1659960746765137, 0.6281762719154358, 0.419921875, 0.364990234375, -0.7392578125, 
281, 477362203, 3.107598304748535, 5.095824718475342, 37.608821868896484, -1.5740550756454468, 0.581436038017273, 9.850388526916504, -0.3552950620651245, -3.1397926807403564, 0.5861689448356628, 0.4208984375, 0.365478515625, -0.73974609375, 
282, 477370536, 3.1058349609375, 5.076552391052246, 37.61458969116211, -1.589816927909851, 0.5872970223426819, 9.83544635772705, -0.29400017857551575, -3.0517826080322266, 0.5778955221176147, 0.42041015625, 0.363037109375, -0.73828125, 
283, 477378869, 3.107880115509033, 5.089818000793457, 37.63533020019531, -1.5754179954528809, 0.6016039848327637, 9.825840950012207, -0.24579420685768127, -3.162717580795288, 0.6068397164344788, 0.42236328125, 0.364013671875, -0.73779296875, 
284, 477387202, 3.106321096420288, 5.069857597351074, 37.641937255859375, -1.5765234231948853, 0.6178728938102722, 9.836836814880371, -0.28029656410217285, -3.1415345668792725, 0.678252100944519, 0.421875, 0.364501953125, -0.73974609375, 
285, 477395535, 3.1072757244110107, 5.083339691162109, 37.66639709472656, -1.578256607055664, 0.5847139358520508, 9.837857246398926, -0.3860321342945099, -3.1715290546417236, 0.6751272082328796, 0.41943359375, 0.36328125, -0.740234375, 
286, 477403868, 3.1053359508514404, 5.062608242034912, 37.672386169433594, -1.5671106576919556, 0.5914507508277893, 9.845250129699707, -0.3173860013484955, -3.2523930072784424, 0.6091961860656738, 0.4228515625, 0.365966796875, -0.73779296875, 
287, 477412201, 3.1065495014190674, 5.076539039611816, 37.69219970703125, -1.58218252658844, 0.6047632098197937, 9.819341659545898, -0.3477644622325897, -3.1611037254333496, 0.5314056873321533, 0.4189453125, 0.3642578125, -0.7431640625, 
288, 477420534, 3.1044657230377197, 5.056860446929932, 37.697452545166016, -1.5667579174041748, 0.6171900629997253, 9.802245140075684, -0.3277597725391388, -3.143199920654297, 0.5072259306907654, 0.42431640625, 0.364990234375, -0.740234375, 
289, 477428867, 3.105691432952881, 5.071048736572266, 37.715431213378906, -1.5690174102783203, 0.598580539226532, 9.810965538024902, -0.3523750305175781, -3.164843797683716, 0.5859128832817078, 0.42041015625, 0.364990234375, -0.7412109375, 
290, 477437200, 3.103288173675537, 5.050790309906006, 37.72121810913086, -1.577848196029663, 0.5763609409332275, 9.82606029510498, -0.3735067844390869, -3.2237308025360107, 0.5754109621047974, 0.419921875, 0.364501953125, -0.73828125, 
291, 477445533, 3.105491876602173, 5.065701484680176, 37.74067687988281, -1.579668641090393, 0.6014575958251953, 9.855878829956055, -0.2379818558692932, -3.112001657485962, 0.5671887993812561, 0.41943359375, 0.36474609375, -0.7392578125, 
292, 477453866, 3.1037700176239014, 5.046243190765381, 37.74602508544922, -1.5853466987609863, 0.5868732333183289, 9.852201461791992, -0.28629031777381897, -3.1438913345336914, 0.5142953991889954, 0.4228515625, 0.364013671875, -0.740234375, 
293, 477462199, 3.1044278144836426, 5.061827659606934, 37.76386642456055, -1.5856901407241821, 0.5975458025932312, 9.855669975280762, -0.42209696769714355, -3.070173501968384, 0.5339159369468689, 0.4228515625, 0.364990234375, -0.73828125, 
294, 477470532, 3.102548837661743, 5.0429792404174805, 37.76972579956055, -1.588385820388794, 0.6015467047691345, 9.81679630279541, -0.31305718421936035, -3.081648349761963, 0.5691867470741272, 0.421875, 0.363525390625, -0.740234375, 
295, 477478865, 3.1041882038116455, 5.058675289154053, 37.79170608520508, -1.5640186071395874, 0.5926726460456848, 9.870105743408203, -0.31041890382766724, -3.0884621143341064, 0.5853748917579651, 0.419921875, 0.365478515625, -0.73974609375, 
296, 477487198, 3.1021554470062256, 5.038947582244873, 37.797576904296875, -1.5614522695541382, 0.5843433141708374, 9.791460037231445, -0.33073103427886963, -3.1999094486236572, 0.5727983713150024, 0.423828125, 0.363037109375, -0.740234375, 
297, 477495531, 3.1031064987182617, 5.054717063903809, 37.81435012817383, -1.5705432891845703, 0.6019920110702515, 9.836938858032227, -0.3945360779762268, -3.115229368209839, 0.5613744258880615, 0.41943359375, 0.3662109375, -0.74072265625, 
298, 477503864, 3.1013007164001465, 5.03578519821167, 37.82041931152344, -1.5824168920516968, 0.609368085861206, 9.838226318359375, -0.3072683811187744, -3.1182260513305664, 0.5882182121276855, 0.41748046875, 0.36474609375, -0.73974609375, 
299, 477512197, 3.103848934173584, 5.052689075469971, 37.83716583251953, -1.5791096687316895, 0.5999369621276855, 9.844536781311035, -0.20995989441871643, -3.0096726417541504, 0.6218495965003967, 0.42431640625, 0.364501953125, -0.73828125, 
300, 477520530, 3.1023452281951904, 5.033565998077393, 37.8432502746582, -1.5861821174621582, 0.6002516746520996, 9.830177307128906, -0.2714596688747406, -3.1533429622650146, 0.5904465317726135, 0.419921875, 0.364501953125, -0.7392578125, 
301, 477528863, 3.104005813598633, 5.049479007720947, 37.86552429199219, -1.5693457126617432, 0.6050229072570801, 9.838553428649902, -0.31515756249427795, -3.1642544269561768, 0.5786383748054504, 0.41943359375, 0.36083984375, -0.74169921875, 
302, 477537196, 3.1025514602661133, 5.029726982116699, 37.87195587158203, -1.5759083032608032, 0.5943926572799683, 9.814765930175781, -0.26964104175567627, -3.2425060272216797, 0.6324026584625244, 0.42236328125, 0.362548828125, -0.73828125, 
303, 477545529, 3.1044113636016846, 5.045153617858887, 37.89223861694336, -1.5728161334991455, 0.5956131219863892, 9.843513488769531, -0.29804727435112, -3.2535202503204346, 0.6046880483627319, 0.4208984375, 0.366943359375, -0.73876953125, 
304, 477553862, 3.1032023429870605, 5.026274681091309, 37.89741134643555, -1.56582772731781, 0.5991104245185852, 9.832969665527344, -0.2270701825618744, -3.1597464084625244, 0.4739273488521576, 0.42138671875, 0.364501953125, -0.7392578125, 
305, 477562195, 3.104980230331421, 5.0421366691589355, 37.91374206542969, -1.561584234237671, 0.5803425312042236, 9.848185539245605, -0.3034774661064148, -3.236665725708008, 0.5477475523948669, 0.421875, 0.361572265625, -0.7392578125, 
306, 477570528, 3.1028807163238525, 5.022989273071289, 37.919090270996094, -1.5725542306900024, 0.5935337543487549, 9.827373504638672, -0.33649420738220215, -3.204622268676758, 0.49280503392219543, 0.41845703125, 0.36181640625, -0.7412109375, 
307, 477578861, 3.105041027069092, 5.04057502746582, 37.94060134887695, -1.5721125602722168, 0.5880724191665649, 9.81202220916748, -0.2633911669254303, -3.059953451156616, 0.5709541440010071, 0.42333984375, 0.364013671875, -0.74072265625, 
308, 477587194, 3.103761911392212, 5.022695541381836, 37.94635772705078, -1.5867174863815308, 0.6027183532714844, 9.832368850708008, -0.2432071715593338, -3.063231945037842, 0.5317386388778687, 0.42236328125, 0.364013671875, -0.74169921875, 
309, 477595527, 3.1058778762817383, 5.039180278778076, 37.96681594848633, -1.574190378189087, 0.6098974943161011, 9.811681747436523, -0.2678736746311188, -3.2226550579071045, 0.5601449608802795, 0.42138671875, 0.362548828125, -0.73974609375, 
310, 477603860, 3.1049418449401855, 5.020943641662598, 37.972843170166016, -1.555952787399292, 0.6111109256744385, 9.816097259521484, -0.2055286169052124, -3.118328332901001, 0.5631418228149414, 0.41943359375, 0.36279296875, -0.73974609375, 
311, 477612193, 3.1071741580963135, 5.0394744873046875, 37.992164611816406, -1.5529885292053223, 0.6070549488067627, 9.83179759979248, -0.2533504366874695, -3.0136940479278564, 0.49669840931892395, 0.41796875, 0.36279296875, -0.74072265625, 
312, 477620526, 3.1057610511779785, 5.021738052368164, 37.99753952026367, -1.577570915222168, 0.6043903827667236, 9.799615859985352, -0.2553483247756958, -3.0760138034820557, 0.4799211621284485, 0.42333984375, 0.362060546875, -0.740234375, 
313, 477628859, 3.1072773933410645, 5.039792060852051, 38.01333999633789, -1.577489972114563, 0.5965394973754883, 9.823030471801758, -0.34853288531303406, -3.095224380493164, 0.5588129758834839, 0.41943359375, 0.36328125, -0.7392578125, 
314, 477637192, 3.1065783500671387, 5.022085189819336, 38.018898010253906, -1.5761786699295044, 0.6018492579460144, 9.826183319091797, -0.1736132651567459, -3.0855672359466553, 0.49859383702278137, 0.4228515625, 0.364013671875, -0.740234375, 
315, 477645525, 3.1089720726013184, 5.0408430099487305, 38.03489685058594, -1.5689011812210083, 0.5906508564949036, 9.822607040405273, -0.2358814924955368, -3.048247814178467, 0.4491840898990631, 0.4208984375, 0.364501953125, -0.73974609375, 
316, 477653858, 3.1069483757019043, 5.024048805236816, 38.040950775146484, -1.5605106353759766, 0.6080176830291748, 9.860085487365723, -0.33795422315597534, -2.9869272708892822, 0.5491563677787781, 0.42138671875, 0.360595703125, -0.740234375, 
317, 477662191, 3.109050750732422, 5.042081832885742, 38.057464599609375, -1.5529155731201172, 0.6065537333488464, 9.80842399597168, -0.28208959102630615, -3.1571080684661865, 0.5568662881851196, 0.4208984375, 0.362060546875, -0.73779296875, 
318, 477670524, 3.107806444168091, 5.0257086753845215, 38.06288146972656, -1.558199405670166, 0.6082887649536133, 9.81624984741211, -0.23823802173137665, -2.9548068046569824, 0.4681897759437561, 0.4208984375, 0.364013671875, -0.7392578125, 
319, 477678857, 3.110032558441162, 5.045985221862793, 38.08148956298828, -1.5797033309936523, 0.5933020114898682, 9.870464324951172, -0.2661319077014923, -2.9169747829437256, 0.5067392587661743, 0.41748046875, 0.3642578125, -0.736328125, 
320, 477687190, 3.1077301502227783, 5.030055522918701, 38.0877685546875, -1.5675557851791382, 0.6255652904510498, 9.881699562072754, -0.37499237060546875, -2.9095208644866943, 0.5673937201499939, 0.41796875, 0.36572265625, -0.73828125, 
321, 477695523, 3.1088905334472656, 5.051029205322266, 38.10075759887695, -1.6056615114212036, 0.6124892234802246, 9.823653221130371, -0.39958205819129944, -2.861135721206665, 0.515396773815155, 0.42138671875, 0.361083984375, -0.7412109375, 
322, 477703856, 3.1071743965148926, 5.03448486328125, 38.10784912109375, -1.5775192975997925, 0.5890756249427795, 9.853629112243652, -0.31295472383499146, -2.99184513092041, 0.6657267808914185, 0.4208984375, 0.361572265625, -0.7392578125, 
323, 477712189, 3.10943341255188, 5.055494785308838, 38.127052307128906, -1.5678294897079468, 0.5871975421905518, 9.827624320983887, -0.27632635831832886, -2.883010149002075, 0.5636284351348877, 0.4189453125, 0.3662109375, -0.74169921875, 
324, 477720522, 3.107642889022827, 5.039196491241455, 38.13233947753906, -1.5965911149978638, 0.5877681374549866, 9.831378936767578, -0.30452761054039, -2.9885406494140625, 0.44646894931793213, 0.419921875, 0.36474609375, -0.740234375, 
325, 477728855, 3.109633684158325, 5.059271335601807, 38.14384460449219, -1.5882542133331299, 0.6091665029525757, 9.843006134033203, -0.3057571351528168, -3.0223004817962646, 0.5465694069862366, 0.42041015625, 0.36279296875, -0.74169921875, 
326, 477737188, 3.1080312728881836, 5.043461322784424, 38.14927673339844, -1.59494149684906, 0.5928168892860413, 9.834010124206543, -0.2849839925765991, -2.9429731369018555, 0.4585588574409485, 0.41943359375, 0.3642578125, -0.7392578125, 
327, 477745521, 3.1100478172302246, 5.064033031463623, 38.16489028930664, -1.576846957206726, 0.6067268252372742, 9.83842945098877, -0.3008904457092285, -2.9940733909606934, 0.49715951085090637, 0.4228515625, 0.364013671875, -0.74072265625, 
328, 477753854, 3.108407974243164, 5.047811031341553, 38.17117691040039, -1.5414433479309082, 0.6097946763038635, 9.799306869506836, -0.29768863320350647, -3.001322031021118, 0.5626294612884521, 0.41845703125, 0.36328125, -0.73828125, 
329, 477762187, 3.110060453414917, 5.0686750411987305, 38.188297271728516, -1.575128436088562, 0.5849170088768005, 9.797903060913086, -0.34948062896728516, -2.9839303493499756, 0.527256190776825, 0.42041015625, 0.364013671875, -0.73828125, 
330, 477770520, 3.108128309249878, 5.053135395050049, 38.193946838378906, -1.5864348411560059, 0.5935267806053162, 9.840073585510254, -0.3259667754173279, -2.936262369155884, 0.48145800828933716, 0.41845703125, 0.36279296875, -0.74072265625, 
331, 477778853, 3.1108381748199463, 5.074201583862305, 38.20777893066406, -1.5959975719451904, 0.6323127746582031, 9.828802108764648, -0.21754170954227448, -2.988463878631592, 0.44649457931518555, 0.42041015625, 0.363525390625, -0.7392578125, 
332, 477787186, 3.1087827682495117, 5.0586652755737305, 38.213741302490234, -1.570184350013733, 0.600053071975708, 9.84229850769043, -0.3466886579990387, -2.949504852294922, 0.5142441391944885, 0.42138671875, 0.362060546875, -0.7412109375, 
333, 477795519, 3.1106388568878174, 5.0799031257629395, 38.227970123291016, -1.578251838684082, 0.6071534752845764, 9.857996940612793, -0.3264022171497345, -2.9923574924468994, 0.48601725697517395, 0.41796875, 0.36376953125, -0.73486328125, 
334, 477803852, 3.1080193519592285, 5.064216136932373, 38.23396682739258, -1.5858726501464844, 0.5887704491615295, 9.856497764587402, -0.41579583287239075, -2.979933977127075, 0.5192900896072388, 0.42041015625, 0.35986328125, -0.740234375, 
335, 477812185, 3.1097447872161865, 5.086982727050781, 38.24650192260742, -1.568251132965088, 0.6009215116500854, 9.853154182434082, -0.3520676791667938, -2.8267359733581543, 0.5716201066970825, 0.42138671875, 0.363037109375, -0.740234375, 
336, 477820518, 3.10762095451355, 5.071420669555664, 38.25267028808594, -1.5806795358657837, 0.5973901748657227, 9.847467422485352, -0.3587273955345154, -2.9792943000793457, 0.534684419631958, 0.423828125, 0.362548828125, -0.73974609375, 
337, 477828851, 3.109443426132202, 5.093870162963867, 38.26696014404297, -1.5622875690460205, 0.5984967350959778, 9.842344284057617, -0.3237382769584656, -2.8978919982910156, 0.37643957138061523, 0.42138671875, 0.363525390625, -0.7392578125, 
338, 477837184, 3.108123540878296, 5.07933235168457, 38.2721061706543, -1.5798819065093994, 0.5916065573692322, 9.835175514221191, -0.25204408168792725, -2.877835988998413, 0.4072535037994385, 0.4189453125, 0.36474609375, -0.7392578125, 
339, 477845517, 3.109684467315674, 5.101664066314697, 38.286598205566406, -1.5680252313613892, 0.5966885089874268, 9.825478553771973, -0.3675130307674408, -2.9280145168304443, 0.49639105796813965, 0.419921875, 0.359375, -0.73828125, 
340, 477853850, 3.1076819896698, 5.087560176849365, 38.29209518432617, -1.5507549047470093, 0.5743593573570251, 9.802897453308105, -0.3374163508415222, -2.8359568119049072, 0.44385623931884766, 0.42236328125, 0.363525390625, -0.73876953125, 
341, 477862183, 3.1093907356262207, 5.111269474029541, 38.30826187133789, -1.5979503393173218, 0.5914165377616882, 9.839778900146484, -0.34717532992362976, -2.788083791732788, 0.4368123412132263, 0.42578125, 0.363525390625, -0.7392578125, 
342, 477870516, 3.107539415359497, 5.096973896026611, 38.31444549560547, -1.5697407722473145, 0.6047017574310303, 9.85401725769043, -0.32801592350006104, -2.86979341506958, 0.5283576250076294, 0.4228515625, 0.365478515625, -0.73876953125, 
343, 477878849, 3.1095926761627197, 5.120275020599365, 38.33386993408203, -1.6065990924835205, 0.5932907462120056, 9.820169448852539, -0.3195888102054596, -2.847867727279663, 0.6315061450004578, 0.42138671875, 0.363037109375, -0.73974609375, 
344, 477887182, 3.1083500385284424, 5.105645179748535, 38.33930587768555, -1.5884352922439575, 0.5981945395469666, 9.81502628326416, -0.24884231388568878, -2.9277842044830322, 0.4377345144748688, 0.421875, 0.364013671875, -0.7373046875, 
345, 477895515, 3.1098084449768066, 5.128210067749023, 38.353580474853516, -1.5992531776428223, 0.6122848391532898, 9.859173774719238, -0.39110374450683594, -2.960160493850708, 0.6000519394874573, 0.4208984375, 0.365478515625, -0.7373046875, 
346, 477903848, 3.1078574657440186, 5.112375259399414, 38.3608283996582, -1.5911645889282227, 0.6158182621002197, 9.837080955505371, -0.35352766513824463, -3.0730934143066406, 0.6585547924041748, 0.42431640625, 0.363037109375, -0.73828125, 
347, 477912181, 3.109851837158203, 5.134607315063477, 38.371177673339844, -1.5836372375488281, 0.6286529302597046, 9.807957649230957, -0.32130497694015503, -3.0277819633483887, 0.4968777596950531, 0.4208984375, 0.3603515625, -0.74365234375, 
348, 477920514, 3.108297348022461, 5.119202613830566, 38.37711715698242, -1.5661957263946533, 0.5821853876113892, 9.805646896362305, -0.2918742001056671, -3.044712781906128, 0.4976974129676819, 0.4208984375, 0.363037109375, -0.74072265625, 
349, 477928847, 3.1108343601226807, 5.141633033752441, 38.39117431640625, -1.5784404277801514, 0.5947331786155701, 9.838977813720703, -0.253913938999176, -3.028473138809204, 0.4553058445453644, 0.41748046875, 0.361328125, -0.740234375, 
350, 477937180, 3.1091718673706055, 5.125669479370117, 38.39780807495117, -1.5951813459396362, 0.6061590909957886, 9.834031105041504, -0.31390243768692017, -3.120940685272217, 0.585964024066925, 0.4208984375, 0.363525390625, -0.74072265625, 
351, 477945513, 3.1116693019866943, 5.146821975708008, 38.40763854980469, -1.5939925909042358, 0.6228388547897339, 9.811527252197266, -0.268129825592041, -3.1951966285705566, 0.5339158773422241, 0.41796875, 0.36572265625, -0.7392578125, 
352, 477953846, 3.109724760055542, 5.1305718421936035, 38.41249084472656, -1.5911494493484497, 0.5856377482414246, 9.830389022827148, -0.32873308658599854, -3.1814160346984863, 0.3711630403995514, 0.4228515625, 0.362548828125, -0.73828125, 
353, 477962179, 3.111898422241211, 5.152449131011963, 38.418113708496094, -1.6029298305511475, 0.5929142832756042, 9.843246459960938, -0.3080624043941498, -3.1287786960601807, 0.5163957476615906, 0.4248046875, 0.360107421875, -0.7431640625, 
354, 477970512, 3.1092381477355957, 5.135533809661865, 38.42436218261719, -1.5941734313964844, 0.6147401928901672, 9.821463584899902, -0.42975562810897827, -3.265481948852539, 0.5414465069770813, 0.42236328125, 0.363037109375, -0.74072265625, 
355, 477978845, 3.1108365058898926, 5.156639099121094, 38.442195892333984, -1.5570498704910278, 0.6080567240715027, 9.805706024169922, -0.37696465849876404, -3.2416346073150635, 0.5390642881393433, 0.42041015625, 0.363037109375, -0.73828125, 
356, 477987178, 3.108792304992676, 5.140798091888428, 38.448081970214844, -1.5910691022872925, 0.5797759294509888, 9.789989471435547, -0.35304102301597595, -3.1528050899505615, 0.49349671602249146, 0.42138671875, 0.364501953125, -0.740234375, 
357, 477995511, 3.1109983921051025, 5.1638569831848145, 38.45833969116211, -1.5777943134307861, 0.598521888256073, 9.839858055114746, -0.30427151918411255, -3.02683424949646, 0.4840962886810303, 0.42041015625, 0.364990234375, -0.73876953125, 
358, 478003844, 3.1097846031188965, 5.149785995483398, 38.46469497680664, -1.5863949060440063, 0.605805516242981, 9.850303649902344, -0.25960028171539307, -2.950683116912842, 0.5337879061698914, 0.42333984375, 0.363037109375, -0.7392578125, 
359, 478012177, 3.1120495796203613, 5.1727094650268555, 38.47312545776367, -1.5966185331344604, 0.615827202796936, 9.807196617126465, -0.3037848174571991, -3.0571868419647217, 0.5561746954917908, 0.421875, 0.362060546875, -0.7392578125, 
360, 478020510, 3.1111438274383545, 5.157809257507324, 38.479488372802734, -1.56891667842865, 0.6090936064720154, 9.82619857788086, -0.22450877726078033, -3.064871311187744, 0.5413697361946106, 0.42236328125, 0.364013671875, -0.73974609375, 
361, 478028843, 3.113844871520996, 5.181649208068848, 38.49265670776367, -1.5738918781280518, 0.6145097613334656, 9.836053848266602, -0.25632166862487793, -2.961364507675171, 0.5959792733192444, 0.41943359375, 0.3623046875, -0.73681640625, 
362, 478037176, 3.111983060836792, 5.166984558105469, 38.49874496459961, -1.5762429237365723, 0.6253531575202942, 9.839940071105957, -0.33731386065483093, -3.0514752864837646, 0.5080967545509338, 0.42138671875, 0.362548828125, -0.74169921875, 
363, 478045509, 3.113443613052368, 5.190553188323975, 38.507835388183594, -1.5792697668075562, 0.6183492541313171, 9.808362007141113, -0.3981733024120331, -3.015871524810791, 0.4822008013725281, 0.423828125, 0.364501953125, -0.73828125, 
364, 478053842, 3.1123836040496826, 5.174544811248779, 38.51422882080078, -1.5971683263778687, 0.6126825213432312, 9.84421157836914, -0.2441549003124237, -3.224524974822998, 0.551359236240387, 0.4228515625, 0.363525390625, -0.73974609375, 
365, 478062175, 3.1141445636749268, 5.196360111236572, 38.52545928955078, -1.597847580909729, 0.6165290474891663, 9.823671340942383, -0.36349162459373474, -3.2419679164886475, 0.48550501465797424, 0.42138671875, 0.364013671875, -0.736328125, 
366, 478070508, 3.112072706222534, 5.181956768035889, 38.532073974609375, -1.572575569152832, 0.617646336555481, 9.80250072479248, -0.3701257109642029, -3.043585777282715, 0.5668814182281494, 0.421875, 0.362548828125, -0.740234375, 
367, 478078841, 3.114461660385132, 5.205198287963867, 38.54190444946289, -1.5889110565185547, 0.6062654256820679, 9.847345352172852, -0.30217111110687256, -3.0795226097106934, 0.5986943244934082, 0.42236328125, 0.363037109375, -0.7373046875, 
368, 478087174, 3.113205909729004, 5.191127300262451, 38.54836654663086, -1.5713955163955688, 0.6277921199798584, 9.833352088928223, -0.2710497975349426, -3.018688678741455, 0.5473121404647827, 0.419921875, 0.36474609375, -0.73974609375, 
369, 478095507, 3.1160948276519775, 5.214942932128906, 38.55945587158203, -1.6051974296569824, 0.6033207178115845, 9.821449279785156, -0.23949311673641205, -3.0289602279663086, 0.5330450534820557, 0.421875, 0.364013671875, -0.73828125, 
370, 478103840, 3.1147031784057617, 5.2014546394348145, 38.564910888671875, -1.5935150384902954, 0.6168316602706909, 9.862130165100098, -0.2776326835155487, -2.9681520462036133, 0.42164871096611023, 0.42041015625, 0.365478515625, -0.73779296875, 
371, 478112173, 3.1171064376831055, 5.225918769836426, 38.573246002197266, -1.5955755710601807, 0.5824124813079834, 9.831594467163086, -0.29410266876220703, -2.969970464706421, 0.46091529726982117, 0.42138671875, 0.359619140625, -0.73876953125, 
372, 478120506, 3.115800380706787, 5.212691783905029, 38.57899856567383, -1.5812925100326538, 0.5907410383224487, 9.845657348632812, -0.2696666419506073, -2.9489667415618896, 0.45410189032554626, 0.4228515625, 0.362548828125, -0.740234375, 
373, 478128839, 3.118265390396118, 5.23618745803833, 38.591453552246094, -1.6010230779647827, 0.5965445637702942, 9.857983589172363, -0.29402580857276917, -3.0958900451660156, 0.5420100688934326, 0.4208984375, 0.363037109375, -0.7392578125, 
374, 478137172, 3.1158664226531982, 5.222714900970459, 38.59819793701172, -1.5824918746948242, 0.6053142547607422, 9.830535888671875, -0.41297832131385803, -2.985851287841797, 0.5746425986289978, 0.4228515625, 0.363525390625, -0.73828125, 
375, 478145505, 3.118147611618042, 5.246755599975586, 38.60618209838867, -1.577161431312561, 0.6176641583442688, 9.835061073303223, -0.31956321001052856, -3.041536808013916, 0.561169445514679, 0.4208984375, 0.364013671875, -0.73828125, 
376, 478153838, 3.117398500442505, 5.233564853668213, 38.61233139038086, -1.5772085189819336, 0.6176406741142273, 9.831014633178711, -0.21001112461090088, -2.9686641693115234, 0.5014370679855347, 0.419921875, 0.364501953125, -0.7373046875, 
377, 478162171, 3.1194987297058105, 5.257251262664795, 38.61937713623047, -1.5744211673736572, 0.6046803593635559, 9.826067924499512, -0.3452542722225189, -3.0942254066467285, 0.5974904894828796, 0.423828125, 0.362060546875, -0.73779296875, 
378, 478170504, 3.117403984069824, 5.243752956390381, 38.62638854980469, -1.5673213005065918, 0.6057919859886169, 9.841282844543457, -0.382599800825119, -3.0148465633392334, 0.6080179214477539, 0.4189453125, 0.3642578125, -0.7392578125, 
379, 478178837, 3.119126796722412, 5.267939567565918, 38.638065338134766, -1.5625087022781372, 0.5913134813308716, 9.80443000793457, -0.3838293254375458, -3.0486319065093994, 0.5239263772964478, 0.4248046875, 0.364501953125, -0.736328125, 
380, 478187170, 3.118022918701172, 5.254959583282471, 38.6441650390625, -1.590874195098877, 0.609848141670227, 9.837342262268066, -0.2535809278488159, -2.9697909355163574, 0.4935990869998932, 0.42236328125, 0.364990234375, -0.7412109375, 
381, 478195503, 3.1204745769500732, 5.279707431793213, 38.65446090698242, -1.5884329080581665, 0.5965925455093384, 9.851107597351074, -0.30027568340301514, -2.9893860816955566, 0.5468767881393433, 0.42041015625, 0.362548828125, -0.73779296875, 
382, 478203836, 3.119046211242676, 5.26632022857666, 38.66098403930664, -1.6007208824157715, 0.6177293062210083, 9.806842803955078, -0.2991742491722107, -3.0289855003356934, 0.548080563545227, 0.419921875, 0.365234375, -0.74169921875, 
383, 478212169, 3.120911121368408, 5.291358470916748, 38.66622543334961, -1.5785071849822998, 0.6094935536384583, 9.804285049438477, -0.360597163438797, -2.972506523132324, 0.41903606057167053, 0.4208984375, 0.360595703125, -0.73779296875, 
384, 478220502, 3.1192727088928223, 5.278264045715332, 38.672176361083984, -1.5881778001785278, 0.5889372825622559, 9.834892272949219, -0.31820568442344666, -3.0116450786590576, 0.47748780250549316, 0.42041015625, 0.364013671875, -0.7392578125, 
385, 478228835, 3.121687650680542, 5.302890300750732, 38.68059158325195, -1.5856348276138306, 0.5881401300430298, 9.86754035949707, -0.30509114265441895, -3.027116060256958, 0.5173435807228088, 0.4228515625, 0.362060546875, -0.73828125, 
386, 478237168, 3.1200110912323, 5.2891998291015625, 38.686649322509766, -1.5883519649505615, 0.6017419099807739, 9.815875053405762, -0.32468608021736145, -3.0941483974456787, 0.49375277757644653, 0.4208984375, 0.365966796875, -0.73779296875, 
387, 478245501, 3.122525453567505, 5.31312370300293, 38.695377349853516, -1.59223473072052, 0.6319730281829834, 9.869009017944336, -0.2916692793369293, -3.1212737560272217, 0.5185218453407288, 0.42041015625, 0.364990234375, -0.73828125, 
388, 478253834, 3.1213266849517822, 5.298496723175049, 38.701942443847656, -1.5809208154678345, 0.6151700615882874, 9.85884952545166, -0.27466145157814026, -3.2175064086914062, 0.5605546832084656, 0.4228515625, 0.362060546875, -0.73974609375, 
389, 478262167, 3.1232783794403076, 5.322105884552002, 38.704864501953125, -1.5721800327301025, 0.6129858493804932, 9.85140323638916, -0.3670007884502411, -3.1635119915008545, 0.5676499009132385, 0.42236328125, 0.363525390625, -0.740234375, 
390, 478270500, 3.1222100257873535, 5.308745861053467, 38.712364196777344, -1.5871689319610596, 0.6080963611602783, 9.836977005004883, -0.26964104175567627, -3.0722737312316895, 0.6652657389640808, 0.42236328125, 0.361572265625, -0.73828125, 
391, 478278833, 3.1254873275756836, 5.332534313201904, 38.719051361083984, -1.5835736989974976, 0.6066892743110657, 9.802470207214355, -0.21654273569583893, -3.1470675468444824, 0.6465929746627808, 0.42333984375, 0.359619140625, -0.7392578125, 
392, 478287166, 3.1246755123138428, 5.318660736083984, 38.7263298034668, -1.5665510892868042, 0.6024649143218994, 9.800854682922363, -0.23834043741226196, -3.1467599868774414, 0.6420079469680786, 0.42041015625, 0.361083984375, -0.73828125, 
393, 478295499, 3.127777576446533, 5.3431267738342285, 38.736515045166016, -1.5900237560272217, 0.595363199710846, 9.83259105682373, -0.22074347734451294, -3.0828781127929688, 0.4781024754047394, 0.42041015625, 0.363525390625, -0.73876953125, 
394, 478303832, 3.125861883163452, 5.330193996429443, 38.743167877197266, -1.594796895980835, 0.5990331172943115, 9.833218574523926, -0.36402952671051025, -3.0518851280212402, 0.5637308955192566, 0.42138671875, 0.365966796875, -0.73974609375, 
395, 478312165, 3.1283762454986572, 5.3539042472839355, 38.74711608886719, -1.6030224561691284, 0.615455150604248, 9.8440580368042, -0.3117508590221405, -3.1674563884735107, 0.6714387536048889, 0.42529296875, 0.363037109375, -0.73974609375, 
396, 478320498, 3.1266887187957764, 5.3405327796936035, 38.75441360473633, -1.585609793663025, 0.6056982278823853, 9.834835052490234, -0.34494689106941223, -3.11397385597229, 0.6404199600219727, 0.421875, 0.360107421875, -0.7412109375, 
397, 478328831, 3.129082202911377, 5.366086483001709, 38.76318359375, -1.5876528024673462, 0.5964983105659485, 9.831038475036621, -0.31472206115722656, -2.962158203125, 0.5470560193061829, 0.42236328125, 0.366455078125, -0.73828125, 
398, 478337164, 3.127722978591919, 5.3540778160095215, 38.769737243652344, -1.590241551399231, 0.6055544018745422, 9.83322811126709, -0.29830336570739746, -2.9657952785491943, 0.5471584796905518, 0.42236328125, 0.363037109375, -0.740234375, 
399, 478345497, 3.1299304962158203, 5.378771781921387, 38.77110290527344, -1.600561499595642, 0.6108691692352295, 9.855335235595703, -0.3384408950805664, -3.072145938873291, 0.5415233969688416, 0.421875, 0.362548828125, -0.740234375, 
400, 478353830, 3.1282577514648438, 5.3666181564331055, 38.77596664428711, -1.5938022136688232, 0.6030274629592896, 9.859238624572754, -0.3188716471195221, -3.008007764816284, 0.3477517068386078, 0.42041015625, 0.363037109375, -0.73974609375, 
401, 478362163, 3.131833791732788, 5.390922546386719, 38.780006408691406, -1.5929902791976929, 0.5982433557510376, 9.812033653259277, -0.17007853090763092, -3.128958225250244, 0.5025385618209839, 0.42236328125, 0.360595703125, -0.73876953125, 
402, 478370496, 3.131265640258789, 5.377366542816162, 38.7867317199707, -1.5850740671157837, 0.599156379699707, 9.851263999938965, -0.20655320584774017, -3.1753458976745605, 0.5795348882675171, 0.42626953125, 0.361572265625, -0.7392578125, 
403, 478378829, 3.1340596675872803, 5.4017863273620605, 38.79385757446289, -1.5815037488937378, 0.5937319397926331, 9.837194442749023, -0.2717413902282715, -3.1152291297912598, 0.5943655371665955, 0.42529296875, 0.362060546875, -0.740234375, 
404, 478387162, 3.1329379081726074, 5.388732433319092, 38.80006408691406, -1.576678991317749, 0.6096239686012268, 9.856894493103027, -0.2694361209869385, -3.1326208114624023, 0.5149613618850708, 0.42138671875, 0.363525390625, -0.74169921875, 
405, 478395495, 3.134908676147461, 5.413304328918457, 38.80821228027344, -1.5743656158447266, 0.5838372707366943, 9.849994659423828, -0.36420881748199463, -3.1034977436065674, 0.5536389350891113, 0.4228515625, 0.362548828125, -0.7431640625, 
406, 478403828, 3.133297920227051, 5.401457786560059, 38.815067291259766, -1.5989339351654053, 0.6033087372779846, 9.821267127990723, -0.33628928661346436, -2.995687246322632, 0.5867324471473694, 0.4228515625, 0.363037109375, -0.73974609375, 
407, 478412161, 3.1360044479370117, 5.42490291595459, 38.818946838378906, -1.5822118520736694, 0.5951212644577026, 9.830599784851074, -0.2771204113960266, -3.241814374923706, 0.5589922666549683, 0.42529296875, 0.364013671875, -0.73828125, 
408, 478420494, 3.1350724697113037, 5.4128217697143555, 38.82551574707031, -1.5805331468582153, 0.6037553548812866, 9.852699279785156, -0.25278690457344055, -3.038053274154663, 0.5538950562477112, 0.4208984375, 0.364013671875, -0.7392578125, 
409, 478428827, 3.1380882263183594, 5.437563896179199, 38.83163833618164, -1.5813031196594238, 0.5971876978874207, 9.807621002197266, -0.2437194287776947, -3.086591958999634, 0.6069164872169495, 0.421875, 0.363037109375, -0.7392578125, 
410, 478437160, 3.137401580810547, 5.425387382507324, 38.83881378173828, -1.5956343412399292, 0.6210379004478455, 9.832975387573242, -0.23311513662338257, -3.0590310096740723, 0.627612829208374, 0.423828125, 0.361572265625, -0.740234375, 
411, 478445493, 3.140066385269165, 5.449225425720215, 38.8404541015625, -1.6166108846664429, 0.6052645444869995, 9.830657958984375, -0.27776074409484863, -3.202240228652954, 0.5282295346260071, 0.421875, 0.360595703125, -0.73681640625, 
412, 478453826, 3.139955997467041, 5.435772895812988, 38.847023010253906, -1.6139718294143677, 0.5956335067749023, 9.852071762084961, -0.1563493013381958, -3.2261385917663574, 0.5627062916755676, 0.42333984375, 0.362548828125, -0.7392578125, 
413, 478462159, 3.1433727741241455, 5.458494186401367, 38.851627349853516, -1.5932869911193848, 0.5903469920158386, 9.801176071166992, -0.19151760637760162, -3.340864419937134, 0.5599143505096436, 0.4208984375, 0.362548828125, -0.74072265625, 
414, 478470492, 3.1427297592163086, 5.4439287185668945, 38.858551025390625, -1.6146577596664429, 0.625029981136322, 9.854394912719727, -0.2261480987071991, -3.370603084564209, 0.6172390580177307, 0.42333984375, 0.362548828125, -0.74072265625, 
415, 478478825, 3.146054983139038, 5.467735767364502, 38.85942077636719, -1.5719493627548218, 0.6034255623817444, 9.851240158081055, -0.2089865356683731, -3.2096943855285645, 0.6304816603660583, 0.42041015625, 0.361328125, -0.7392578125, 
416, 478487158, 3.145322561264038, 5.453620910644531, 38.86673355102539, -1.5849472284317017, 0.6190052032470703, 9.825871467590332, -0.24256683886051178, -3.3248305320739746, 0.662115216255188, 0.42138671875, 0.364990234375, -0.73974609375, 
417, 478495491, 3.1479382514953613, 5.477229595184326, 38.86757278442383, -1.584955096244812, 0.6074998378753662, 9.851582527160645, -0.28413867950439453, -3.2436842918395996, 0.5219796299934387, 0.421875, 0.361572265625, -0.73974609375, 
418, 478503824, 3.1467440128326416, 5.464569568634033, 38.87399673461914, -1.5676857233047485, 0.6276862621307373, 9.807560920715332, -0.28844186663627625, -3.168199062347412, 0.5495405793190002, 0.42333984375, 0.364990234375, -0.7373046875, 
419, 478512157, 3.1498305797576904, 5.489930152893066, 38.876136779785156, -1.6116595268249512, 0.6084858179092407, 9.839639663696289, -0.2291705310344696, -3.033954381942749, 0.5255400538444519, 0.41943359375, 0.36328125, -0.73974609375, 
420, 478520490, 3.148967981338501, 5.4772162437438965, 38.881832122802734, -1.582330584526062, 0.6240074634552002, 9.832161903381348, -0.24105554819107056, -3.191328763961792, 0.4640915095806122, 0.423828125, 0.365478515625, -0.73583984375, 
421, 478528823, 3.1523327827453613, 5.501239776611328, 38.880828857421875, -1.613570213317871, 0.6069444417953491, 9.824504852294922, -0.2168244868516922, -3.1862058639526367, 0.7154951691627502, 0.42041015625, 0.361328125, -0.74072265625, 
422, 478537156, 3.1515088081359863, 5.487826347351074, 38.88843536376953, -1.5664784908294678, 0.6231278777122498, 9.849105834960938, -0.2596515119075775, -3.2743191719055176, 0.6973091959953308, 0.42431640625, 0.362060546875, -0.73828125, 
423, 478545489, 3.1542956829071045, 5.512087345123291, 38.88851547241211, -1.575038194656372, 0.6212332844734192, 9.867410659790039, -0.26500487327575684, -3.1702992916107178, 0.5210063457489014, 0.419921875, 0.364013671875, -0.73828125, 
424, 478553822, 3.1529133319854736, 5.498551368713379, 38.8953742980957, -1.6003286838531494, 0.6113472580909729, 9.851325035095215, -0.3209720253944397, -3.307079553604126, 0.613986074924469, 0.419921875, 0.365478515625, -0.7373046875, 
425, 478562155, 3.1556589603424072, 5.522467136383057, 38.893218994140625, -1.5969845056533813, 0.5983761548995972, 9.846514701843262, -0.28188467025756836, -3.204008102416992, 0.6079667210578918, 0.419921875, 0.36083984375, -0.73681640625, 
426, 478570488, 3.1541693210601807, 5.509814739227295, 38.899757385253906, -1.5816315412521362, 0.6022284030914307, 9.79675006866455, -0.3299625813961029, -3.214406967163086, 0.5730031728744507, 0.41943359375, 0.361328125, -0.74169921875, 
427, 478578821, 3.1567039489746094, 5.535183906555176, 38.900596618652344, -1.5701626539230347, 0.6102412939071655, 9.83003044128418, -0.3016844689846039, -3.033827066421509, 0.5771271586418152, 0.4228515625, 0.361572265625, -0.740234375, 
428, 478587154, 3.154904365539551, 5.523094177246094, 38.907352447509766, -1.5858370065689087, 0.6222875118255615, 9.79391098022461, -0.37089410424232483, -3.1564676761627197, 0.599104106426239, 0.42236328125, 0.364501953125, -0.7421875, 
429, 478595487, 3.157658576965332, 5.547816276550293, 38.90835189819336, -1.5752277374267578, 0.6300545930862427, 9.842241287231445, -0.2638265788555145, -3.117380142211914, 0.4572269022464752, 0.4248046875, 0.362060546875, -0.7392578125, 
430, 478603820, 3.156508207321167, 5.536564826965332, 38.914825439453125, -1.592938780784607, 0.5923061966896057, 9.83150577545166, -0.290721595287323, -3.0703015327453613, 0.560862123966217, 0.42236328125, 0.362548828125, -0.74072265625, 
431, 478612153, 3.159304618835449, 5.561662197113037, 38.91844940185547, -1.6073497533798218, 0.6071301698684692, 9.847573280334473, -0.2712291479110718, -3.0642566680908203, 0.5738485455513, 0.421875, 0.364990234375, -0.7412109375, 
432, 478620486, 3.157592535018921, 5.5499677658081055, 38.9246940612793, -1.5849897861480713, 0.6262544989585876, 9.850824356079102, -0.3568575382232666, -3.1349263191223145, 0.5370920896530151, 0.421875, 0.364990234375, -0.740234375, 
433, 478628819, 3.1602272987365723, 5.573805809020996, 38.92182922363281, -1.591071605682373, 0.5930215716362, 9.869653701782227, -0.2897482216358185, -3.2171738147735596, 0.5641663670539856, 0.42431640625, 0.365966796875, -0.740234375, 
434, 478637152, 3.158569574356079, 5.561644554138184, 38.92776870727539, -1.5863595008850098, 0.6133979558944702, 9.839179039001465, -0.3478413224220276, -3.2041103839874268, 0.5075076818466187, 0.4208984375, 0.364013671875, -0.73876953125, 
435, 478645485, 3.161344289779663, 5.585699081420898, 38.92514419555664, -1.5874180793762207, 0.5862178802490234, 9.816133499145508, -0.2597539722919464, -3.196861505508423, 0.44772401452064514, 0.42041015625, 0.365966796875, -0.74072265625, 
436, 478653818, 3.1601998805999756, 5.573597431182861, 38.932289123535156, -1.6242660284042358, 0.5927184820175171, 9.832858085632324, -0.30186375975608826, -3.2000887393951416, 0.654610276222229, 0.421875, 0.364501953125, -0.7412109375, 
437, 478662151, 3.1617989540100098, 5.597705841064453, 38.92658996582031, -1.5827618837356567, 0.5985204577445984, 9.820767402648926, -0.41579586267471313, -3.179187774658203, 0.5821731686592102, 0.42138671875, 0.361083984375, -0.7412109375, 
438, 478670484, 3.159986734390259, 5.586608409881592, 38.933128356933594, -1.5706119537353516, 0.6138373613357544, 9.846597671508789, -0.375248521566391, -3.0958902835845947, 0.577383279800415, 0.42236328125, 0.364990234375, -0.73974609375, 
439, 478678817, 3.162177085876465, 5.610710144042969, 38.93243408203125, -1.6013264656066895, 0.6079195737838745, 9.822516441345215, -0.3411303758621216, -3.180724620819092, 0.5878595113754272, 0.42431640625, 0.361083984375, -0.73828125, 
440, 478687150, 3.159912109375, 5.5982561111450195, 38.939334869384766, -1.5800894498825073, 0.6032105088233948, 9.823515892028809, -0.4368763864040375, -3.266941785812378, 0.6345030069351196, 0.42333984375, 0.361083984375, -0.7421875, 
441, 478695483, 3.1617848873138428, 5.622823715209961, 38.942604064941406, -1.584876537322998, 0.6140050292015076, 9.830299377441406, -0.3849307596683502, -3.118353843688965, 0.665496289730072, 0.42236328125, 0.363037109375, -0.73779296875, 
442, 478703816, 3.160109519958496, 5.612185955047607, 38.94911193847656, -1.5837733745574951, 0.6175643801689148, 9.822528839111328, -0.3616473972797394, -3.06351375579834, 0.5764355659484863, 0.423828125, 0.361572265625, -0.740234375, 
443, 478712149, 3.1616616249084473, 5.636809825897217, 38.94696807861328, -1.609702467918396, 0.6175134181976318, 9.86686897277832, -0.41689732670783997, -3.112001657485962, 0.5765636563301086, 0.4208984375, 0.364501953125, -0.7412109375, 
444, 478720482, 3.1600685119628906, 5.625476837158203, 38.9528923034668, -1.5986740589141846, 0.6067308783531189, 9.819258689880371, -0.3448444604873657, -3.162154197692871, 0.5159603357315063, 0.4189453125, 0.36572265625, -0.7412109375, 
445, 478728815, 3.161578416824341, 5.649121284484863, 38.94766616821289, -1.5794602632522583, 0.6189648509025574, 9.798624038696289, -0.423633873462677, -3.227419376373291, 0.5793043971061707, 0.421875, 0.363037109375, -0.7431640625, 
446, 478737148, 3.159801959991455, 5.638084411621094, 38.9538688659668, -1.577120304107666, 0.5979337096214294, 9.827431678771973, -0.37237977981567383, -3.1358227729797363, 0.5487465858459473, 0.41943359375, 0.36376953125, -0.7392578125, 
447, 478745481, 3.1614420413970947, 5.66351842880249, 38.94961929321289, -1.5866981744766235, 0.6128504872322083, 9.820307731628418, -0.4028606712818146, -3.0130021572113037, 0.5185986161231995, 0.4228515625, 0.361572265625, -0.7412109375, 
448, 478753814, 3.160097599029541, 5.653853893280029, 38.95534896850586, -1.5800292491912842, 0.6211954355239868, 9.839507102966309, -0.3165663480758667, -2.984647512435913, 0.4870419204235077, 0.421875, 0.362548828125, -0.73876953125, 
449, 478762147, 3.1620121002197266, 5.679069519042969, 38.95409393310547, -1.5880467891693115, 0.6031708717346191, 9.829201698303223, -0.36756426095962524, -3.0353636741638184, 0.5296383500099182, 0.42041015625, 0.35986328125, -0.73974609375, 
450, 478770480, 3.1605300903320312, 5.668350696563721, 38.95957565307617, -1.586997389793396, 0.5990465879440308, 9.84172248840332, -0.3309359550476074, -3.1227598190307617, 0.4688301682472229, 0.42041015625, 0.363037109375, -0.73779296875, 
451, 478778813, 3.1626381874084473, 5.693780422210693, 38.95838928222656, -1.5829789638519287, 0.620627760887146, 9.845053672790527, -0.3465862274169922, -3.0033462047576904, 0.5673937201499939, 0.423828125, 0.361572265625, -0.740234375, 
452, 478787146, 3.160490036010742, 5.683134078979492, 38.964847564697266, -1.578490972518921, 0.6021376848220825, 9.832133293151855, -0.42573413252830505, -3.1175849437713623, 0.5875264406204224, 0.423828125, 0.361083984375, -0.7412109375, 
453, 478795479, 3.1621925830841064, 5.707853317260742, 38.96526336669922, -1.5763237476348877, 0.6086823344230652, 9.856024742126465, -0.40324491262435913, -3.079266309738159, 0.6548663973808289, 0.42041015625, 0.366455078125, -0.73876953125, 
454, 478803812, 3.1603641510009766, 5.6969804763793945, 38.972354888916016, -1.5815150737762451, 0.6235430240631104, 9.844205856323242, -0.3951508104801178, -3.1521646976470947, 0.6663927435874939, 0.42626953125, 0.363525390625, -0.73876953125, 
455, 478812145, 3.1616413593292236, 5.721719264984131, 38.96318054199219, -1.574528455734253, 0.6010347604751587, 9.842031478881836, -0.448121041059494, -3.07580828666687, 0.5556880235671997, 0.42236328125, 0.362548828125, -0.74072265625, 
456, 478820478, 3.1593871116638184, 5.711665153503418, 38.9699592590332, -1.593435287475586, 0.5995253920555115, 9.847648620605469, -0.44374099373817444, -3.066894769668579, 0.6279201507568359, 0.42236328125, 0.365966796875, -0.73828125, 
457, 478828811, 3.1605684757232666, 5.736618518829346, 38.9664192199707, -1.5757659673690796, 0.6058415174484253, 9.847677230834961, -0.4632846415042877, -3.0401792526245117, 0.6253331899642944, 0.42041015625, 0.362060546875, -0.73828125, 
458, 478837144, 3.1591432094573975, 5.726179599761963, 38.97333908081055, -1.5749602317810059, 0.6172517538070679, 9.812027931213379, -0.3467143177986145, -3.123553514480591, 0.6517670154571533, 0.423828125, 0.363037109375, -0.7392578125, 
459, 478845477, 3.1607155799865723, 5.7510223388671875, 38.96894073486328, -1.5798349380493164, 0.6043381094932556, 9.814447402954102, -0.4076249599456787, -3.0520384311676025, 0.5452374219894409, 0.42236328125, 0.362548828125, -0.73974609375, 
460, 478853810, 3.1593387126922607, 5.742184638977051, 38.97498321533203, -1.5827785730361938, 0.6224449872970581, 9.821027755737305, -0.3319604992866516, -2.946277379989624, 0.5401402115821838, 0.4189453125, 0.36181640625, -0.74072265625, 
461, 478862143, 3.1611335277557373, 5.767428398132324, 38.971065521240234, -1.5921587944030762, 0.6035940051078796, 9.857823371887207, -0.38503319025039673, -2.9968907833099365, 0.5781517028808594, 0.42138671875, 0.364990234375, -0.73876953125, 
462, 478870476, 3.159816265106201, 5.7595534324646, 38.977298736572266, -1.5900323390960693, 0.6108630299568176, 9.846184730529785, -0.3278366029262543, -2.839568853378296, 0.5607340335845947, 0.4228515625, 0.365478515625, -0.73974609375, 
463, 478878809, 3.160417318344116, 5.784459590911865, 38.97150421142578, -1.5891917943954468, 0.5982475280761719, 9.817195892333984, -0.5357473492622375, -3.0278844833374023, 0.6399332880973816, 0.42333984375, 0.366455078125, -0.7412109375, 
464, 478887142, 3.1579172611236572, 5.775838375091553, 38.977378845214844, -1.6140412092208862, 0.6093083620071411, 9.845165252685547, -0.46699872612953186, -2.9421792030334473, 0.5264877676963806, 0.421875, 0.361572265625, -0.73974609375, 
465, 478895475, 3.159306287765503, 5.800800323486328, 38.971981048583984, -1.5989524126052856, 0.5975460410118103, 9.837590217590332, -0.4442020654678345, -3.0122337341308594, 0.6914434432983398, 0.42236328125, 0.362060546875, -0.7392578125, 
466, 478903808, 3.1573164463043213, 5.790005683898926, 38.97957992553711, -1.607231855392456, 0.6014164686203003, 9.831743240356445, -0.42819321155548096, -3.2012672424316406, 0.7518930435180664, 0.42529296875, 0.363525390625, -0.73974609375, 
467, 478912141, 3.1586227416992188, 5.813258171081543, 38.97627639770508, -1.6031311750411987, 0.6157280802726746, 9.827441215515137, -0.44043681025505066, -3.220733880996704, 0.5946473479270935, 0.42333984375, 0.362060546875, -0.7392578125, 
468, 478920474, 3.156132698059082, 5.803429126739502, 38.98230743408203, -1.5720739364624023, 0.5960684418678284, 9.814538955688477, -0.46961137652397156, -3.104496717453003, 0.5628600120544434, 0.42236328125, 0.364501953125, -0.740234375, 
469, 478928807, 3.1571240425109863, 5.827743053436279, 38.979148864746094, -1.5943872928619385, 0.6003358960151672, 9.811858177185059, -0.47209596633911133, -3.090818405151367, 0.5220820903778076, 0.42236328125, 0.360595703125, -0.740234375, 
470, 478937140, 3.154864549636841, 5.8174729347229, 38.98514938354492, -1.5931929349899292, 0.6029238104820251, 9.848993301391602, -0.44271644949913025, -3.169454574584961, 0.564191997051239, 0.423828125, 0.364501953125, -0.73876953125, 
471, 478945473, 3.1560256481170654, 5.841753959655762, 38.98306655883789, -1.6011723279953003, 0.603367269039154, 9.826299667358398, -0.462567538022995, -3.0795228481292725, 0.654815137386322, 0.42431640625, 0.363525390625, -0.7373046875, 
472, 478953806, 3.154768943786621, 5.831508636474609, 38.989402770996094, -1.5921088457107544, 0.6215927004814148, 9.802192687988281, -0.32927095890045166, -3.174013376235962, 0.6080179214477539, 0.4189453125, 0.361328125, -0.73876953125, 
473, 478962139, 3.1558456420898438, 5.8553972244262695, 38.98554229736328, -1.6044574975967407, 0.6043033003807068, 9.856810569763184, -0.46215760707855225, -3.126422166824341, 0.5602729320526123, 0.42333984375, 0.364990234375, -0.7392578125, 
474, 478970472, 3.15291690826416, 5.845126628875732, 38.99176025390625, -1.591464638710022, 0.6073037981987, 9.844560623168945, -0.5287034511566162, -3.186666965484619, 0.5964658856391907, 0.4189453125, 0.3671875, -0.7412109375, 
475, 478978805, 3.153716802597046, 5.868335723876953, 38.98494338989258, -1.6116905212402344, 0.6009095311164856, 9.818741798400879, -0.4997849464416504, -3.200268268585205, 0.5766404867172241, 0.421875, 0.363037109375, -0.73681640625, 
476, 478987138, 3.151392936706543, 5.858364582061768, 38.99071502685547, -1.5950847864151, 0.6013115644454956, 9.839457511901855, -0.4513484537601471, -3.1646387577056885, 0.5454679727554321, 0.42138671875, 0.364013671875, -0.736328125, 
477, 478995471, 3.152808427810669, 5.881196975708008, 38.984283447265625, -1.571797490119934, 0.6075652837753296, 9.830641746520996, -0.4252987802028656, -3.2384846210479736, 0.6011020541191101, 0.423828125, 0.364013671875, -0.7392578125, 
478, 479003804, 3.150787115097046, 5.870601654052734, 38.990238189697266, -1.5812281370162964, 0.6166436672210693, 9.84231948852539, -0.41997095942497253, -3.2466039657592773, 0.5757182836532593, 0.42236328125, 0.363525390625, -0.73828125, 
479, 479012137, 3.151975154876709, 5.89348840713501, 38.98493194580078, -1.59218168258667, 0.5983045697212219, 9.851677894592285, -0.45073363184928894, -3.223346471786499, 0.6074030995368958, 0.4189453125, 0.36279296875, -0.740234375, 
480, 479020470, 3.1501235961914062, 5.883754730224609, 38.991432189941406, -1.5838731527328491, 0.5980225205421448, 9.834781646728516, -0.40795788168907166, -3.1504223346710205, 0.6382682919502258, 0.42333984375, 0.367431640625, -0.73876953125, 
481, 479028803, 3.1518657207489014, 5.906963348388672, 38.982093811035156, -1.5849108695983887, 0.6018421649932861, 9.81814956665039, -0.38531494140625, -3.1768312454223633, 0.5942118167877197, 0.419921875, 0.36328125, -0.74169921875, 
482, 479037136, 3.1494832038879395, 5.897474765777588, 38.98859786987305, -1.5723464488983154, 0.6060110330581665, 9.84543514251709, -0.4716349244117737, -3.129572629928589, 0.6406248211860657, 0.423828125, 0.364501953125, -0.73974609375, 
483, 479045469, 3.150888442993164, 5.9209489822387695, 38.98006057739258, -1.5874152183532715, 0.6027258038520813, 9.842973709106445, -0.4308314323425293, -3.1339271068573, 0.6525866389274597, 0.42041015625, 0.364013671875, -0.73876953125, 
484, 479053802, 3.1480891704559326, 5.910411357879639, 38.986209869384766, -1.5741422176361084, 0.6003819704055786, 9.824796676635742, -0.5188676118850708, -3.26704478263855, 0.6112197041511536, 0.42529296875, 0.360107421875, -0.7373046875, 
485, 479062135, 3.1490838527679443, 5.933167934417725, 38.97895812988281, -1.5766736268997192, 0.6024406552314758, 9.801029205322266, -0.4676390588283539, -3.214714527130127, 0.5583774447441101, 0.4228515625, 0.362548828125, -0.73876953125, 
486, 479070468, 3.147007703781128, 5.923444747924805, 38.984622955322266, -1.582984447479248, 0.619414210319519, 9.866754531860352, -0.42783454060554504, -3.1825172901153564, 0.5543560981750488, 0.42138671875, 0.366943359375, -0.74072265625, 
487, 479078801, 3.147752523422241, 5.947088241577148, 38.979286193847656, -1.597590446472168, 0.5983260273933411, 9.835583686828613, -0.49135783314704895, -3.1017043590545654, 0.5178813934326172, 0.419921875, 0.36279296875, -0.73828125, 
488, 479087134, 3.145595073699951, 5.937986373901367, 38.985679626464844, -1.5631941556930542, 0.6023849844932556, 9.81845760345459, -0.4482234716415405, -3.1124112606048584, 0.6400100588798523, 0.4189453125, 0.36376953125, -0.7373046875, 
489, 479095467, 3.146618127822876, 5.961015224456787, 38.97660827636719, -1.6024370193481445, 0.5890837907791138, 9.819303512573242, -0.47798725962638855, -3.158747911453247, 0.6922631859779358, 0.42431640625, 0.364013671875, -0.736328125, 
490, 479103800, 3.145340919494629, 5.9523844718933105, 38.98297882080078, -1.5927448272705078, 0.5995079278945923, 9.815522193908691, -0.34205251932144165, -3.065204381942749, 0.6369876265525818, 0.4208984375, 0.365966796875, -0.73974609375, 
491, 479112133, 3.146944284439087, 5.9751296043396, 38.97822570800781, -1.5849460363388062, 0.6147328019142151, 9.85350513458252, -0.3929223418235779, -3.18902325630188, 0.5883461236953735, 0.42138671875, 0.363037109375, -0.73876953125, 
492, 479120466, 3.1445486545562744, 5.9650983810424805, 38.983829498291016, -1.5964295864105225, 0.6135469675064087, 9.833475112915039, -0.4680745303630829, -3.246706485748291, 0.5614511966705322, 0.42333984375, 0.361572265625, -0.73974609375, 
493, 479128799, 3.1455485820770264, 5.987633228302002, 38.97568130493164, -1.6016751527786255, 0.5987704396247864, 9.834237098693848, -0.47317177057266235, -3.2014718055725098, 0.6401381492614746, 0.42333984375, 0.364501953125, -0.73974609375, 
494, 479137132, 3.1422364711761475, 5.977011680603027, 38.98221206665039, -1.5947731733322144, 0.6114123463630676, 9.810428619384766, -0.5917144417762756, -3.320091485977173, 0.6784570813179016, 0.421875, 0.364990234375, -0.7392578125, 
495, 479145465, 3.1421260833740234, 5.998209476470947, 38.97528839111328, -1.5629160404205322, 0.6170057654380798, 9.805249214172363, -0.6022162437438965, -3.3557209968566895, 0.6362960338592529, 0.4208984375, 0.363037109375, -0.740234375, 
496, 479153798, 3.1395771503448486, 5.988587856292725, 38.981475830078125, -1.5560946464538574, 0.605391800403595, 9.799684524536133, -0.4967624843120575, -3.2111284732818604, 0.6377560496330261, 0.419921875, 0.36376953125, -0.74169921875, 
497, 479162131, 3.139803409576416, 6.011114597320557, 38.969940185546875, -1.5672204494476318, 0.6178860664367676, 9.819513320922852, -0.560874879360199, -3.189305305480957, 0.577690601348877, 0.42041015625, 0.365966796875, -0.73974609375, 
498, 479170464, 3.1381337642669678, 6.001523494720459, 38.97529602050781, -1.5997936725616455, 0.602372944355011, 9.824645042419434, -0.3822668790817261, -3.2223734855651855, 0.5437262058258057, 0.423828125, 0.364990234375, -0.73974609375, 
