PacketCounter,SampleTimeFine,Euler_X,Euler_Y,Euler_Z,Acc_X,Acc_Y,Acc_Z,Gyr_X,Gyr_Y,Gyr_Z,Mag_X,Mag_Y,Mag_Z,Status,
0, 1068538691, -141.85125732421875, 28.35887908935547, -102.78121185302734, 0, 0, 0, 0, 0, 0, 0, 0, 0, 0, 
1, 1068547024, -141.8550262451172, 28.359676361083984, -102.7844467163086, -4.8813796043396, 1.0635826587677002, 8.647080421447754, -0.47378653287887573, -2.937671184539795, 0.4770011007785797, 0.671630859375, 0.402099609375, -0.735595703125, 0, 
2, 1068555357, -141.8577880859375, 28.36065101623535, -102.78797912597656, -4.870279788970947, 1.0414766073226929, 8.6327486038208, -0.33605876564979553, -2.934417963027954, 0.5179325938224792, 0.670654296875, 0.403076171875, -0.738525390625, 0, 
3, 1068563690, -141.90086364746094, 28.32110595703125, -102.81243133544922, -4.884742736816406, 1.043191909790039, 8.673378944396973, -0.43275249004364014, -2.852452278137207, 0.5671631693840027, 0.672119140625, 0.402587890625, -0.736572265625, 0, 
4, 1068572023, -141.90338134765625, 28.321731567382812, -102.81594848632812, -4.882937908172607, 1.0467801094055176, 8.649845123291016, -0.3066023886203766, -2.903270959854126, 0.4900386929512024, 0.676513671875, 0.401611328125, -0.736572265625, 0, 
5, 1068580356, -141.93150329589844, 28.296371459960938, -102.8316421508789, -4.871939659118652, 1.057714819908142, 8.65188980102539, -0.3213818073272705, -2.9835715293884277, 0.47689858078956604, 0.674560546875, 0.401123046875, -0.735595703125, 0, 
6, 1068588689, -141.93389892578125, 28.297616958618164, -102.83446502685547, -4.888266086578369, 1.064982533454895, 8.655941009521484, -0.33285701274871826, -3.006547689437866, 0.4785636067390442, 0.674560546875, 0.402587890625, -0.736083984375, 0, 
7, 1068597022, -141.9626007080078, 28.272523880004883, -102.85032653808594, -4.869736194610596, 1.0850329399108887, 8.670890808105469, -0.3524775207042694, -3.034390449523926, 0.5162933468818665, 0.676025390625, 0.400146484375, -0.740478515625, 0, 
8, 1068605355, -141.96592712402344, 28.27431297302246, -102.85259246826172, -4.8842949867248535, 1.0555753707885742, 8.649313926696777, -0.47714197635650635, -3.096658706665039, 0.47223684191703796, 0.675048828125, 0.402587890625, -0.738037109375, 0, 
9, 1068613688, -141.9951934814453, 28.248979568481445, -102.86739349365234, -4.865668773651123, 1.0589629411697388, 8.65337085723877, -0.44940173625946045, -3.116330623626709, 0.4164234399795532, 0.674072265625, 0.401611328125, -0.737060546875, 0, 
10, 1068622021, -141.9986114501953, 28.250852584838867, -102.86979675292969, -4.878105163574219, 1.0422160625457764, 8.672183990478516, -0.482034295797348, -3.096658706665039, 0.4886299669742584, 0.675048828125, 0.402099609375, -0.739501953125, 0, 
11, 1068630354, -142.02865600585938, 28.225603103637695, -102.8856201171875, -4.886935234069824, 1.0566428899765015, 8.674517631530762, -0.45736777782440186, -3.0950448513031006, 0.5148077607154846, 0.674072265625, 0.404052734375, -0.737548828125, 0, 
12, 1068638687, -142.0319366455078, 28.226486206054688, -102.88897705078125, -4.864661693572998, 1.0509543418884277, 8.6492919921875, -0.41308075189590454, -2.9409751892089844, 0.49344542622566223, 0.669677734375, 0.402587890625, -0.735107421875, 0, 
13, 1068647020, -142.0626220703125, 28.200284957885742, -102.90528869628906, -4.884677886962891, 1.080054759979248, 8.66071891784668, -0.47378647327423096, -3.0114142894744873, 0.491959810256958, 0.670166015625, 0.403076171875, -0.738525390625, 0, 
14, 1068655353, -142.06661987304688, 28.201568603515625, -102.90851593017578, -4.862393379211426, 1.059614658355713, 8.681118965148926, -0.5064959526062012, -2.9868249893188477, 0.5133733749389648, 0.672607421875, 0.402587890625, -0.738525390625, 0, 
15, 1068663686, -142.09803771972656, 28.174009323120117, -102.9256820678711, -4.8751220703125, 1.0575276613235474, 8.652341842651367, -0.48854032158851624, -2.860597848892212, 0.4674470126628876, 0.674560546875, 0.400634765625, -0.737548828125, 0, 
16, 1068672019, -142.1013946533203, 28.174360275268555, -102.92790222167969, -4.882523536682129, 1.055396556854248, 8.652661323547363, -0.48731085658073425, -2.9638490676879883, 0.3608405590057373, 0.673583984375, 0.403564453125, -0.736083984375, 0, 
17, 1068680352, -142.13209533691406, 28.14650535583496, -102.9449234008789, -4.878697395324707, 1.0405066013336182, 8.651191711425781, -0.38211315870285034, -2.878681182861328, 0.4391944408416748, 0.673583984375, 0.403076171875, -0.740478515625, 0, 
18, 1068688685, -142.13522338867188, 28.147253036499023, -102.94796752929688, -4.8659138679504395, 1.0512882471084595, 8.653199195861816, -0.4148481786251068, -2.949171781539917, 0.4589686989784241, 0.671630859375, 0.400146484375, -0.736083984375, 0, 
19, 1068697018, -142.1676025390625, 28.11910057067871, -102.96630859375, -4.8759684562683105, 1.0767850875854492, 8.663991928100586, -0.4783714711666107, -2.795076608657837, 0.5347099900245667, 0.677001953125, 0.40283203125, -0.738037109375, 0, 
20, 1068705351, -142.1727752685547, 28.11905860900879, -102.96996307373047, -4.867607116699219, 1.072677493095398, 8.659368515014648, -0.6262936592102051, -2.834266424179077, 0.4516942501068115, 0.671142578125, 0.403564453125, -0.736083984375, 0, 
21, 1068713684, -142.2049560546875, 28.091312408447266, -102.9865493774414, -4.876938819885254, 1.0704985857009888, 8.652379989624023, -0.5248867869377136, -2.983494520187378, 0.42164865136146545, 0.675048828125, 0.402587890625, -0.736572265625, 0, 
22, 1068722017, -142.2093048095703, 28.093130111694336, -102.98881530761719, -4.880557060241699, 1.057310938835144, 8.656400680541992, -0.6066988110542297, -3.1015000343322754, 0.4711354672908783, 0.676025390625, 0.402099609375, -0.737060546875, 0, 
23, 1068730350, -142.2421112060547, 28.066566467285156, -103.00581359863281, -4.878590106964111, 1.0661287307739258, 8.63858413696289, -0.5505779981613159, -3.0999884605407715, 0.5478757619857788, 0.677490234375, 0.40283203125, -0.738037109375, 0, 
24, 1068738683, -142.24591064453125, 28.067848205566406, -103.00768280029297, -4.861874103546143, 1.05842125415802, 8.631587982177734, -0.5644609332084656, -3.0769097805023193, 0.3971615135669708, 0.674072265625, 0.403564453125, -0.735595703125, 0, 
25, 1068747016, -142.27871704101562, 28.0400333404541, -103.02415466308594, -4.87032413482666, 1.05246901512146, 8.672436714172363, -0.5511670708656311, -3.0441489219665527, 0.42175111174583435, 0.674072265625, 0.404052734375, -0.735595703125, 0, 
26, 1068755349, -142.2816162109375, 28.04036521911621, -103.02580261230469, -4.875851631164551, 1.0631370544433594, 8.64370346069336, -0.4714300036430359, -3.0015017986297607, 0.3082033097743988, 0.674072265625, 0.404052734375, -0.739013671875, 0, 
27, 1068763682, -142.3135986328125, 28.012121200561523, -103.041748046875, -4.8718743324279785, 1.0536102056503296, 8.664170265197754, -0.45488324761390686, -3.070404291152954, 0.3457793593406677, 0.675537109375, 0.402099609375, -0.736083984375, 0, 
28, 1068772015, -142.31719970703125, 28.013633728027344, -103.0440902709961, -4.853532314300537, 1.0661102533340454, 8.647943496704102, -0.5132836699485779, -3.0704550743103027, 0.45266759395599365, 0.676025390625, 0.403564453125, -0.739501953125, 0, 
29, 1068780348, -142.3497314453125, 27.98512077331543, -103.06039428710938, -4.871631145477295, 1.042020559310913, 8.646774291992188, -0.4744780957698822, -3.0458145141601562, 0.3623005449771881, 0.674560546875, 0.402587890625, -0.739990234375, 0, 
30, 1068788681, -142.35272216796875, 27.985727310180664, -103.06322479248047, -4.8673882484436035, 1.0490278005599976, 8.669188499450684, -0.41495057940483093, -2.9525272846221924, 0.4275912046432495, 0.677001953125, 0.40380859375, -0.735595703125, 0, 
31, 1068797014, -142.38523864746094, 27.957286834716797, -103.08103942871094, -4.8708062171936035, 1.0305532217025757, 8.68420124053955, -0.362082839012146, -2.9854161739349365, 0.4960325062274933, 0.674072265625, 0.403564453125, -0.738525390625, 0, 
32, 1068805347, -142.38818359375, 27.95789337158203, -103.0838851928711, -4.871243000030518, 1.0451430082321167, 8.638875961303711, -0.40839335322380066, -2.9525270462036133, 0.42751437425613403, 0.675537109375, 0.402587890625, -0.737548828125, 0, 
33, 1068813680, -142.4199981689453, 27.929075241088867, -103.10069274902344, -4.859892845153809, 1.0504251718521118, 8.66104507446289, -0.3120582401752472, -3.039461851119995, 0.3890674412250519, 0.673583984375, 0.404052734375, -0.737060546875, 0, 
34, 1068822013, -142.42274475097656, 27.93088150024414, -103.10274505615234, -4.8745832443237305, 1.0613150596618652, 8.648850440979004, -0.42975565791130066, -3.1181232929229736, 0.4488510191440582, 0.675537109375, 0.402099609375, -0.737060546875, 0, 
35, 1068830346, -142.4555206298828, 27.903549194335938, -103.1196517944336, -4.888857364654541, 1.0391871929168701, 8.660465240478516, -0.3933066129684448, -3.203470230102539, 0.5074820518493652, 0.676025390625, 0.403564453125, -0.738037109375, 0, 
36, 1068838679, -142.45846557617188, 27.90639305114746, -103.12191772460938, -4.877295970916748, 1.038993239402771, 8.67183780670166, -0.4455084204673767, -3.2050838470458984, 0.5407037138938904, 0.677490234375, 0.40234375, -0.736083984375, 0, 
37, 1068847012, -142.4922332763672, 27.87979507446289, -103.1395492553711, -4.877139091491699, 1.0535634756088257, 8.655939102172852, -0.44330552220344543, -3.251086711883545, 0.6258710026741028, 0.673583984375, 0.403076171875, -0.740966796875, 0, 
38, 1068855345, -142.4945831298828, 27.88309669494629, -103.14117431640625, -4.8596601486206055, 1.0716363191604614, 8.6837739944458, -0.40975090861320496, -3.2887394428253174, 0.522261381149292, 0.675048828125, 0.403564453125, -0.738037109375, 0, 
39, 1068863678, -142.52752685546875, 27.855459213256836, -103.15768432617188, -4.883452415466309, 1.0349998474121094, 8.657262802124023, -0.3823949098587036, -3.2509846687316895, 0.4565097391605377, 0.673583984375, 0.401611328125, -0.735595703125, 0, 
40, 1068872011, -142.53004455566406, 27.85860824584961, -103.15961456298828, -4.851548671722412, 1.0732176303863525, 8.670221328735352, -0.4144895374774933, -3.255953311920166, 0.5354527235031128, 0.672119140625, 0.402587890625, -0.738037109375, 0, 
41, 1068880344, -142.5650177001953, 27.830059051513672, -103.17805480957031, -4.854692459106445, 1.016263484954834, 8.674463272094727, -0.4960452616214752, -3.064077377319336, 0.551205575466156, 0.671630859375, 0.401123046875, -0.738037109375, 0, 
42, 1068888677, -142.56822204589844, 27.831335067749023, -103.181640625, -4.871103286743164, 1.0528141260147095, 8.65523910522461, -0.4042438566684723, -2.9707388877868652, 0.5389875769615173, 0.671142578125, 0.402587890625, -0.736083984375, 0, 
43, 1068897010, -142.60179138183594, 27.802001953125, -103.20001220703125, -4.854398727416992, 1.0526872873306274, 8.660806655883789, -0.3096504807472229, -3.011798620223999, 0.4921647012233734, 0.673583984375, 0.403564453125, -0.737548828125, 0, 
44, 1068905343, -142.60400390625, 27.80377769470215, -103.2032241821289, -4.87612771987915, 1.0600707530975342, 8.66532039642334, -0.3075757324695587, -3.0413572788238525, 0.5412928462028503, 0.673095703125, 0.402099609375, -0.735107421875, 0, 
45, 1068913676, -142.63816833496094, 27.775529861450195, -103.22164154052734, -4.870508193969727, 1.0417267084121704, 8.667396545410156, -0.3533227741718292, -3.131545305252075, 0.5760514140129089, 0.674072265625, 0.401611328125, -0.738037109375, 0, 
46, 1068922009, -142.64027404785156, 27.778356552124023, -103.22445678710938, -4.887939929962158, 1.0233930349349976, 8.699337005615234, -0.31882035732269287, -3.169326066970825, 0.5854772925376892, 0.671630859375, 0.402587890625, -0.737060546875, 0, 
47, 1068930342, -142.67453002929688, 27.750289916992188, -103.24191284179688, -4.875970363616943, 1.0509445667266846, 8.637442588806152, -0.3984038233757019, -3.2313895225524902, 0.5074820518493652, 0.675537109375, 0.401123046875, -0.739501953125, 0, 
48, 1068938675, -142.67613220214844, 27.754167556762695, -103.24354553222656, -4.871691703796387, 1.0307042598724365, 8.652494430541992, -0.32588991522789, -3.346346139907837, 0.5606572031974792, 0.670166015625, 0.403076171875, -0.737548828125, 0, 
49, 1068947008, -142.71002197265625, 27.72745132446289, -103.26093292236328, -4.87847900390625, 1.0563815832138062, 8.647886276245117, -0.33867141604423523, -3.3824620246887207, 0.6001030802726746, 0.669677734375, 0.401123046875, -0.736572265625, 0, 
50, 1068955341, -142.71165466308594, 27.732208251953125, -103.26209259033203, -4.859097957611084, 1.0415974855422974, 8.671915054321289, -0.3520677089691162, -3.461149215698242, 0.5853750109672546, 0.675537109375, 0.404052734375, -0.738525390625, 0, 
51, 1068963674, -142.74627685546875, 27.705110549926758, -103.2798080444336, -4.8494038581848145, 1.0910451412200928, 8.65251636505127, -0.38288161158561707, -3.341428518295288, 0.6006666421890259, 0.673583984375, 0.405517578125, -0.736572265625, 0, 
52, 1068972007, -142.7489471435547, 27.708148956298828, -103.28258514404297, -4.863095283508301, 1.0378830432891846, 8.673542022705078, -0.39082202315330505, -3.192225456237793, 0.5961073040962219, 0.674072265625, 0.401123046875, -0.738525390625, 0, 
53, 1068980340, -142.78355407714844, 27.679006576538086, -103.30117797851562, -4.86721134185791, 1.0270129442214966, 8.635767936706543, -0.31449154019355774, -3.107032060623169, 0.5231835246086121, 0.672607421875, 0.403076171875, -0.736083984375, 0, 
54, 1068988673, -142.785400390625, 27.68065071105957, -103.30590057373047, -4.847042083740234, 1.0671988725662231, 8.69091796875, -0.1830137073993683, -2.937005043029785, 0.6596049070358276, 0.672607421875, 0.403076171875, -0.739501953125, 0, 
55, 1068997006, -142.8203582763672, 27.651348114013672, -103.32562255859375, -4.866050720214844, 1.0602078437805176, 8.662393569946289, -0.27402108907699585, -3.0318033695220947, 0.606455385684967, 0.673583984375, 0.402587890625, -0.737548828125, 0, 
56, 1069005339, -142.82167053222656, 27.65449333190918, -103.32848358154297, -4.884160041809082, 1.0750454664230347, 8.665108680725098, -0.22345857322216034, -3.199166774749756, 0.6104512214660645, 0.673583984375, 0.403564453125, -0.737548828125, 0, 
57, 1069013672, -142.8555450439453, 27.62590789794922, -103.3479995727539, -4.8742876052856445, 1.0440858602523804, 8.68000316619873, -0.136037215590477, -3.1239888668060303, 0.6422897577285767, 0.673583984375, 0.402099609375, -0.738037109375, 0, 
58, 1069022005, -142.85748291015625, 27.629383087158203, -103.35054779052734, -4.870627403259277, 1.0662540197372437, 8.667634963989258, -0.31705302000045776, -3.253084897994995, 0.606685996055603, 0.675048828125, 0.401611328125, -0.736572265625, 0, 
59, 1069030338, -142.8914031982422, 27.60125160217285, -103.36930847167969, -4.850114822387695, 1.0461790561676025, 8.665817260742188, -0.169514998793602, -3.2304670810699463, 0.6064297556877136, 0.673583984375, 0.404052734375, -0.739990234375, 0, 
60, 1069038671, -142.89285278320312, 27.60457992553711, -103.37259674072266, -4.862938404083252, 1.0391937494277954, 8.650249481201172, -0.2195395976305008, -3.1894588470458984, 0.6580168604850769, 0.675048828125, 0.401123046875, -0.735595703125, 0, 
61, 1069047004, -142.9266357421875, 27.577009201049805, -103.39154815673828, -4.856884956359863, 1.0632227659225464, 8.654362678527832, -0.12794309854507446, -3.2798256874084473, 0.6582730412483215, 0.670654296875, 0.400634765625, -0.736572265625, 0, 
62, 1069055337, -142.92727661132812, 27.580196380615234, -103.39442443847656, -4.862551212310791, 1.0673165321350098, 8.627717971801758, -0.14479728043079376, -3.2026760578155518, 0.6143446564674377, 0.673095703125, 0.398681640625, -0.737548828125, 0, 
63, 1069063670, -142.96170043945312, 27.55109214782715, -103.41404724121094, -4.828567981719971, 1.0618590116500854, 8.647501945495605, -0.16769640147686005, -3.0731191635131836, 0.5969013571739197, 0.671630859375, 0.401611328125, -0.740966796875, 0, 
64, 1069072003, -142.96173095703125, 27.552898406982422, -103.41809844970703, -4.848021030426025, 1.0531100034713745, 8.663166046142578, -0.006608473137021065, -2.999708652496338, 0.6111428737640381, 0.677978515625, 0.40087890625, -0.736083984375, 0, 
65, 1069080336, -142.99559020996094, 27.52358627319336, -103.43831634521484, -4.8741021156311035, 1.0665466785430908, 8.640569686889648, -0.07694516330957413, -2.9897191524505615, 0.6219520568847656, 0.673583984375, 0.404052734375, -0.736572265625, 0, 
66, 1069088669, -142.99607849121094, 27.52540397644043, -103.4427490234375, -4.874894142150879, 1.0412002801895142, 8.675718307495117, -0.0404961071908474, -2.9735054969787598, 0.6444157361984253, 0.672607421875, 0.403564453125, -0.739013671875, 0, 
67, 1069097002, -143.0294647216797, 27.496278762817383, -103.46265411376953, -4.879272937774658, 1.0472146272659302, 8.646963119506836, -0.06093626841902733, -2.988131046295166, 0.5955437421798706, 0.672119140625, 0.402099609375, -0.737060546875, 0, 
68, 1069105335, -143.030029296875, 27.498207092285156, -103.46693420410156, -4.880643367767334, 1.0384070873260498, 8.660191535949707, -0.05863098427653313, -2.994790554046631, 0.6413676738739014, 0.671630859375, 0.402587890625, -0.737060546875, 0, 
69, 1069113668, -143.0629425048828, 27.4706974029541, -103.4867172241211, -4.87506628036499, 1.0204752683639526, 8.663984298706055, -0.04016312211751938, -3.0965816974639893, 0.6851935982704163, 0.671630859375, 0.403076171875, -0.737548828125, 0, 
70, 1069122001, -143.06277465820312, 27.473480224609375, -103.49153900146484, -4.8811821937561035, 1.0484609603881836, 8.6885986328125, 0.05925852805376053, -3.0428688526153564, 0.7476667165756226, 0.673583984375, 0.399658203125, -0.737060546875, 0, 
71, 1069130334, -143.09393310546875, 27.447906494140625, -103.5108642578125, -4.884477138519287, 1.0602643489837646, 8.637803077697754, 0.10490310192108154, -3.2463481426239014, 0.7646233439445496, 0.671630859375, 0.400634765625, -0.739013671875, 0, 
72, 1069138667, -143.0938720703125, 27.452041625976562, -103.51407623291016, -4.848230838775635, 1.080693244934082, 8.664793014526367, -0.04692528024315834, -3.2769572734832764, 0.7079902291297913, 0.675048828125, 0.403076171875, -0.737060546875, 0, 
73, 1069147000, -143.12588500976562, 27.42698097229004, -103.53265380859375, -4.861186504364014, 1.1014436483383179, 8.642105102539062, -0.08777998387813568, -3.268683671951294, 0.7152134776115417, 0.671142578125, 0.403076171875, -0.734619140625, 0, 
74, 1069155333, -143.1251220703125, 27.431644439697266, -103.5340576171875, -4.849147796630859, 1.0961947441101074, 8.662431716918945, -0.06078258156776428, -3.4423484802246094, 0.5914967656135559, 0.672607421875, 0.402099609375, -0.738037109375, 0, 
75, 1069163666, -143.15687561035156, 27.40585708618164, -103.55225372314453, -4.860517978668213, 1.085574984550476, 8.681952476501465, -0.1317596137523651, -3.1372313499450684, 0.6079667210578918, 0.677001953125, 0.402587890625, -0.739013671875, 0, 
76, 1069171999, -143.1571044921875, 27.408611297607422, -103.55575561523438, -4.84381103515625, 1.058349847793579, 8.683652877807617, -0.0657261312007904, -3.1259870529174805, 0.6331198811531067, 0.674072265625, 0.399658203125, -0.739013671875, 0, 
77, 1069180332, -143.18836975097656, 27.382888793945312, -103.57437896728516, -4.8710432052612305, 1.0918928384780884, 8.674291610717773, -0.11475177854299545, -3.024196147918701, 0.6243342161178589, 0.672119140625, 0.401123046875, -0.735595703125, 0, 
78, 1069188665, -143.18939208984375, 27.38429832458496, -103.57897186279297, -4.861507415771484, 1.0591857433319092, 8.683492660522461, -0.0996137484908104, -2.92752742767334, 0.62920081615448, 0.676513671875, 0.40283203125, -0.737060546875, 0, 
79, 1069196998, -143.2207489013672, 27.35759735107422, -103.5976333618164, -4.8609843254089355, 1.085044264793396, 8.672314643859863, -0.19133834540843964, -2.825403928756714, 0.5244130492210388, 0.672607421875, 0.401611328125, -0.739501953125, 0, 
80, 1069205331, -143.2222137451172, 27.359020233154297, -103.60074615478516, -4.855554580688477, 1.0724389553070068, 8.645549774169922, -0.23657307028770447, -3.023632287979126, 0.5035118460655212, 0.673095703125, 0.402099609375, -0.739501953125, 0, 
81, 1069213664, -143.2530059814453, 27.334917068481445, -103.61798858642578, -4.87068510055542, 1.0871652364730835, 8.677769660949707, -0.2716901898384094, -3.059697151184082, 0.5647810697555542, 0.671142578125, 0.405029296875, -0.737060546875, 0, 
82, 1069221997, -143.2553253173828, 27.33720588684082, -103.62193298339844, -4.858515739440918, 1.079944372177124, 8.655813217163086, -0.2965872287750244, -3.0532169342041016, 0.6357325315475464, 0.674560546875, 0.399169921875, -0.739013671875, 0, 
83, 1069230330, -143.28492736816406, 27.31406593322754, -103.63819122314453, -4.8642072677612305, 1.0780901908874512, 8.695023536682129, -0.2612139582633972, -3.1023192405700684, 0.5185730457305908, 0.672119140625, 0.401611328125, -0.737548828125, 0, 
84, 1069238663, -143.2871856689453, 27.316118240356445, -103.6412582397461, -4.877865791320801, 1.0453321933746338, 8.672140121459961, -0.334445059299469, -3.087386131286621, 0.5445714592933655, 0.674560546875, 0.401611328125, -0.737548828125, 0, 
85, 1069246996, -143.3153076171875, 27.29412841796875, -103.65678405761719, -4.861700057983398, 1.0893409252166748, 8.650243759155273, -0.20578473806381226, -3.1434810161590576, 0.5092237591743469, 0.674072265625, 0.401123046875, -0.739501953125, 0, 
86, 1069255329, -143.31629943847656, 27.295007705688477, -103.66004943847656, -4.850546836853027, 1.050961971282959, 8.65031623840332, -0.17461222410202026, -2.961569309234619, 0.47784632444381714, 0.673095703125, 0.403564453125, -0.737548828125, 0, 
87, 1069263662, -143.34405517578125, 27.273826599121094, -103.67630767822266, -4.878273010253906, 1.0348504781723022, 8.64803695678711, -0.2037356197834015, -3.0551888942718506, 0.601204514503479, 0.674560546875, 0.401611328125, -0.735595703125, 0, 
88, 1069271995, -143.34454345703125, 27.276351928710938, -103.6799545288086, -4.866542339324951, 1.075322151184082, 8.655555725097656, -0.09185265004634857, -3.09496808052063, 0.6268187761306763, 0.672119140625, 0.401611328125, -0.737548828125, 0, 
89, 1069280328, -143.3711700439453, 27.25718879699707, -103.69518280029297, -4.8470540046691895, 1.093681812286377, 8.677351951599121, -0.21195778250694275, -3.196221113204956, 0.6224130392074585, 0.672119140625, 0.402099609375, -0.739013671875, 0, 
90, 1069288661, -143.37135314941406, 27.259389877319336, -103.69802856445312, -4.860008716583252, 1.048283576965332, 8.671002388000488, -0.10033094882965088, -3.117764472961426, 0.535094141960144, 0.674560546875, 0.398681640625, -0.735595703125, 0, 
91, 1069296994, -143.39695739746094, 27.240446090698242, -103.71359252929688, -4.8663153648376465, 1.041396141052246, 8.646130561828613, -0.15371102094650269, -3.071889638900757, 0.6428276300430298, 0.674560546875, 0.401611328125, -0.736572265625, 0, 
92, 1069305327, -143.3970947265625, 27.24282455444336, -103.71620178222656, -4.872044563293457, 1.0654112100601196, 8.676302909851074, -0.10880927741527557, -3.14888596534729, 0.5286394357681274, 0.673095703125, 0.400634765625, -0.740966796875, 0, 
93, 1069313660, -143.42100524902344, 27.22592544555664, -103.73165893554688, -4.858790397644043, 1.0895001888275146, 8.676395416259766, -0.04533720016479492, -3.1577742099761963, 0.7437220811843872, 0.673095703125, 0.401123046875, -0.739501953125, 0, 
94, 1069321993, -143.420654296875, 27.23000144958496, -103.73502349853516, -4.884881019592285, 1.0846078395843506, 8.7036771774292, -0.007018301170319319, -3.266071319580078, 0.713189959526062, 0.675537109375, 0.400634765625, -0.739501953125, 0, 
95, 1069330326, -143.44337463378906, 27.2136287689209, -103.74968719482422, -4.866835594177246, 1.075917363166809, 8.685262680053711, -0.0317104198038578, -3.1331589221954346, 0.6861156821250916, 0.672607421875, 0.402099609375, -0.737060546875, 0, 
96, 1069338659, -143.44378662109375, 27.216474533081055, -103.75325012207031, -4.86549711227417, 1.0929139852523804, 8.663857460021973, -0.08844595402479172, -3.1361300945281982, 0.6414445042610168, 0.673095703125, 0.400634765625, -0.739501953125, 0, 
97, 1069346992, -143.4659881591797, 27.199974060058594, -103.76652526855469, -4.84561824798584, 1.0766249895095825, 8.652528762817383, -0.13503824174404144, -3.0930724143981934, 0.526077926158905, 0.670654296875, 0.401611328125, -0.739013671875, 0, 
98, 1069355325, -143.46728515625, 27.201696395874023, -103.77166748046875, -4.8574042320251465, 1.066175103187561, 8.629755973815918, -0.10765663534402847, -2.926323890686035, 0.698051929473877, 0.676025390625, 0.403076171875, -0.739013671875, 0, 
99, 1069363658, -143.48802185058594, 27.185115814208984, -103.78596496582031, -4.830051898956299, 1.0699259042739868, 8.665666580200195, 0.014459235593676567, -2.895433187484741, 0.5805850625038147, 0.674072265625, 0.400634765625, -0.735595703125, 0, 
100, 1069371991, -143.4891815185547, 27.185977935791016, -103.79042053222656, -4.860523700714111, 1.105271339416504, 8.674896240234375, -0.13147787749767303, -2.888312339782715, 0.5773064494132996, 0.673095703125, 0.400634765625, -0.737548828125, 0, 
101, 1069380324, -143.5100555419922, 27.17078971862793, -103.80475616455078, -4.873641014099121, 1.0727660655975342, 8.67570686340332, -0.08552592992782593, -2.911621332168579, 0.6565825343132019, 0.676025390625, 0.398193359375, -0.737548828125, 0, 
102, 1069388657, -143.51109313964844, 27.1721248626709, -103.80875396728516, -4.853931903839111, 1.1040955781936646, 8.6607027053833, -0.14016108214855194, -2.9620559215545654, 0.5708004832267761, 0.675048828125, 0.400634765625, -0.733642578125, 0, 
103, 1069396990, -143.53094482421875, 27.157136917114258, -103.82156372070312, -4.865658760070801, 1.0898665189743042, 8.645167350769043, -0.1265343278646469, -2.919408082962036, 0.5132196545600891, 0.674072265625, 0.399169921875, -0.735595703125, 0, 
104, 1069405323, -143.53265380859375, 27.158658981323242, -103.8254623413086, -4.882360935211182, 1.108542799949646, 8.639087677001953, -0.22870953381061554, -2.9863381385803223, 0.576102614402771, 0.676513671875, 0.402587890625, -0.737548828125, 0, 
105, 1069413656, -143.55181884765625, 27.145048141479492, -103.8364486694336, -4.858683109283447, 1.0698076486587524, 8.680438041687012, -0.22763369977474213, -3.0564956665039062, 0.42346739768981934, 0.675048828125, 0.399658203125, -0.736572265625, 0, 
106, 1069421989, -143.5535888671875, 27.146886825561523, -103.83982849121094, -4.860255241394043, 1.0810452699661255, 8.642614364624023, -0.2622129023075104, -3.0501174926757812, 0.5538181662559509, 0.675537109375, 0.399658203125, -0.736572265625, 0, 
107, 1069430322, -143.5731964111328, 27.133167266845703, -103.8523941040039, -4.844749450683594, 1.0918184518814087, 8.676656723022461, -0.2734832167625427, -2.8335747718811035, 0.5250533223152161, 0.675537109375, 0.401611328125, -0.740478515625, 0, 
108, 1069438655, -143.57447814941406, 27.132999420166016, -103.8563232421875, -4.8740715980529785, 1.055666446685791, 8.647132873535156, -0.1766357570886612, -2.822381019592285, 0.4587637484073639, 0.676025390625, 0.399658203125, -0.735107421875, 0, 
109, 1069446988, -143.59255981445312, 27.12073516845703, -103.86799621582031, -4.855274677276611, 1.0739001035690308, 8.671199798583984, -0.21162481606006622, -2.9273228645324707, 0.5233628749847412, 0.677001953125, 0.399169921875, -0.737060546875, 0, 
110, 1069455321, -143.5944366455078, 27.120222091674805, -103.87345886230469, -4.850829601287842, 1.053999423980713, 8.637672424316406, -0.16526302695274353, -2.6914923191070557, 0.5653702020645142, 0.675048828125, 0.400634765625, -0.738037109375, 0, 
111, 1069463654, -143.61123657226562, 27.108203887939453, -103.88468933105469, -4.876030445098877, 1.0946859121322632, 8.660231590270996, -0.1567591279745102, -2.8766837120056152, 0.47787201404571533, 0.671142578125, 0.400146484375, -0.738037109375, 0, 
112, 1069471987, -143.6136474609375, 27.108562469482422, -103.89055633544922, -4.869073867797852, 1.1003581285476685, 8.639439582824707, -0.20903778076171875, -2.7522494792938232, 0.6614492535591125, 0.674072265625, 0.397705078125, -0.739990234375, 0, 
113, 1069480320, -143.62986755371094, 27.09663200378418, -103.90140533447266, -4.846903324127197, 1.0856571197509766, 8.649580955505371, -0.18060599267482758, -2.809267044067383, 0.4327141046524048, 0.677001953125, 0.401611328125, -0.738525390625, 0, 
114, 1069488653, -143.63217163085938, 27.09751319885254, -103.90469360351562, -4.8596649169921875, 1.087730050086975, 8.632948875427246, -0.3360331654548645, -2.9644381999969482, 0.4756179451942444, 0.676025390625, 0.401611328125, -0.735595703125, 0, 
115, 1069496986, -143.6486358642578, 27.08643341064453, -103.91488647460938, -4.861035346984863, 1.0912446975708008, 8.662185668945312, -0.3157210350036621, -2.8414127826690674, 0.4130423367023468, 0.674072265625, 0.399658203125, -0.737548828125, 0, 
116, 1069505319, -143.6509552001953, 27.0862979888916, -103.91736602783203, -4.869296073913574, 1.08550226688385, 8.696733474731445, -0.3803713321685791, -2.9180245399475098, 0.3358153700828552, 0.671142578125, 0.396728515625, -0.738037109375, 0, 
117, 1069513652, -143.66693115234375, 27.076519012451172, -103.92631530761719, -4.873946189880371, 1.1056007146835327, 8.675537109375, -0.39573997259140015, -2.9492485523223877, 0.382074773311615, 0.677490234375, 0.399658203125, -0.739013671875, 0, 
118, 1069521985, -143.6703643798828, 27.07701301574707, -103.92977905273438, -4.859743595123291, 1.0669814348220825, 8.638445854187012, -0.4606464207172394, -2.9147462844848633, 0.4641939699649811, 0.674560546875, 0.398681640625, -0.737060546875, 0, 
119, 1069530318, -143.68695068359375, 27.067901611328125, -103.93841552734375, -4.855888843536377, 1.0739291906356812, 8.642436981201172, -0.5500913262367249, -2.9485316276550293, 0.3746722340583801, 0.674072265625, 0.400146484375, -0.740478515625, 0, 
120, 1069538651, -143.69122314453125, 27.068405151367188, -103.94100189208984, -4.855528354644775, 1.0898170471191406, 8.681526184082031, -0.6104384064674377, -2.9729161262512207, 0.3909628689289093, 0.676513671875, 0.400634765625, -0.739501953125, 0, 
121, 1069546984, -143.70745849609375, 27.060298919677734, -103.94905853271484, -4.87796688079834, 1.0879675149917603, 8.639272689819336, -0.5978106260299683, -2.995917558670044, 0.3774642050266266, 0.674560546875, 0.396240234375, -0.739501953125, 0, 
122, 1069555317, -143.7116241455078, 27.06096649169922, -103.95182800292969, -4.870443820953369, 1.0854623317718506, 8.676133155822754, -0.5884101986885071, -2.978039026260376, 0.41824203729629517, 0.675537109375, 0.400146484375, -0.736083984375, 0, 
123, 1069563650, -143.72898864746094, 27.05341339111328, -103.95901489257812, -4.856358528137207, 1.086435079574585, 8.699743270874023, -0.842144787311554, -3.0208659172058105, 0.32172760367393494, 0.675048828125, 0.398681640625, -0.739990234375, 0, 
124, 1069571983, -143.73448181152344, 27.054393768310547, -103.96012115478516, -4.857102394104004, 1.0950690507888794, 8.650930404663086, -0.8367146849632263, -3.1126930713653564, 0.29672813415527344, 0.674560546875, 0.400634765625, -0.740478515625, 0, 
125, 1069580316, -143.75050354003906, 27.047061920166016, -103.96660614013672, -4.871963024139404, 1.0816378593444824, 8.645121574401855, -0.7766491770744324, -3.0144879817962646, 0.25758957862854004, 0.671142578125, 0.398193359375, -0.739501953125, 0, 
126, 1069588649, -143.75469970703125, 27.04772186279297, -103.96809387207031, -4.851403713226318, 1.088096261024475, 8.650144577026367, -0.6623328924179077, -3.056213855743408, 0.30679452419281006, 0.676025390625, 0.400634765625, -0.737060546875, 0, 
127, 1069596982, -143.77029418945312, 27.04046630859375, -103.9746322631836, -4.840808391571045, 1.0816723108291626, 8.674041748046875, -0.7797996997833252, -2.9406936168670654, 0.24977721273899078, 0.672119140625, 0.401611328125, -0.739501953125, 0, 
128, 1069605315, -143.77430725097656, 27.041763305664062, -103.97722625732422, -4.880283355712891, 1.0688066482543945, 8.660223960876465, -0.5780108571052551, -3.050501585006714, 0.44541874527931213, 0.673095703125, 0.399658203125, -0.739501953125, 0, 
129, 1069613648, -143.78858947753906, 27.035398483276367, -103.98379516601562, -4.861489295959473, 1.0790852308273315, 8.663578987121582, -0.6718357801437378, -2.951246976852417, 0.30082640051841736, 0.674560546875, 0.404052734375, -0.736083984375, 0, 
130, 1069621981, -143.79234313964844, 27.035490036010742, -103.98542785644531, -4.862084865570068, 1.0914479494094849, 8.651416778564453, -0.5989120602607727, -2.994176149368286, 0.2789005935192108, 0.674072265625, 0.403564453125, -0.738525390625, 0, 
131, 1069630314, -143.804931640625, 27.029991149902344, -103.99246978759766, -4.861428737640381, 1.0616633892059326, 8.66649055480957, -0.4955073297023773, -2.9409239292144775, 0.3859424889087677, 0.673583984375, 0.401123046875, -0.742919921875, 0, 
132, 1069638647, -143.80897521972656, 27.031776428222656, -103.99446105957031, -4.881336212158203, 1.0761464834213257, 8.671856880187988, -0.6165602803230286, -3.1340298652648926, 0.42994770407676697, 0.673583984375, 0.400146484375, -0.738525390625, 0, 
133, 1069646980, -143.82122802734375, 27.028202056884766, -103.99917602539062, -4.84451150894165, 1.0809880495071411, 8.639244079589844, -0.6287269592285156, -3.205749750137329, 0.30707624554634094, 0.674072265625, 0.403076171875, -0.739990234375, 0, 
134, 1069655313, -143.82565307617188, 27.029874801635742, -104.00167846679688, -4.850958347320557, 1.0860217809677124, 8.647799491882324, -0.6332350969314575, -3.0897939205169678, 0.4666273295879364, 0.672119140625, 0.400146484375, -0.738037109375, 0, 
135, 1069663646, -143.83750915527344, 27.026878356933594, -104.00785064697266, -4.854363441467285, 1.0510441064834595, 8.624604225158691, -0.5467358827590942, -3.1033694744110107, 0.45581817626953125, 0.672119140625, 0.400634765625, -0.739013671875, 0, 
136, 1069671979, -143.8411865234375, 27.02753448486328, -104.0106201171875, -4.8593878746032715, 1.077871322631836, 8.684531211853027, -0.5308037996292114, -2.9770402908325195, 0.41801151633262634, 0.674072265625, 0.400634765625, -0.738037109375, 0, 
137, 1069680312, -143.85244750976562, 27.023681640625, -104.01688385009766, -4.861147880554199, 1.0757349729537964, 8.685236930847168, -0.5152047276496887, -2.9573943614959717, 0.38809409737586975, 0.675048828125, 0.400634765625, -0.739013671875, 0, 
138, 1069688645, -143.85585021972656, 27.0247859954834, -104.0197525024414, -4.850627899169922, 1.0957481861114502, 8.644899368286133, -0.4920494556427002, -3.013514995574951, 0.4577392339706421, 0.677001953125, 0.40283203125, -0.738525390625, 0, 
139, 1069696978, -143.86695861816406, 27.02215003967285, -104.02503204345703, -4.858989238739014, 1.0681037902832031, 8.632976531982422, -0.5934818387031555, -3.076704978942871, 0.3704458773136139, 0.674560546875, 0.401611328125, -0.736083984375, 0, 
140, 1069705311, -143.8712921142578, 27.023740768432617, -104.02735900878906, -4.854072570800781, 1.0785032510757446, 8.649903297424316, -0.6339011788368225, -3.096402645111084, 0.44544440507888794, 0.669677734375, 0.402587890625, -0.739501953125, 0, 
141, 1069713644, -143.88217163085938, 27.022512435913086, -104.03213500976562, -4.867096900939941, 1.0855885744094849, 8.644094467163086, -0.6352074146270752, -3.1898176670074463, 0.4189080595970154, 0.673095703125, 0.401123046875, -0.737548828125, 0, 
142, 1069721977, -143.88600158691406, 27.02348518371582, -104.03467559814453, -4.863142967224121, 1.0812832117080688, 8.672202110290527, -0.5605931878089905, -3.0229408740997314, 0.4171406328678131, 0.672607421875, 0.400634765625, -0.737060546875, 0, 
143, 1069730310, -143.89678955078125, 27.02166748046875, -104.03944396972656, -4.875605583190918, 1.064439058303833, 8.680821418762207, -0.6642795205116272, -3.0779857635498047, 0.36283841729164124, 0.672119140625, 0.401123046875, -0.734130859375, 0, 
144, 1069738643, -143.90101623535156, 27.024585723876953, -104.04126739501953, -4.869784355163574, 1.0771361589431763, 8.626116752624512, -0.6495769023895264, -3.255697011947632, 0.4946236312389374, 0.673583984375, 0.401611328125, -0.739013671875, 0, 
145, 1069746976, -143.911376953125, 27.023818969726562, -104.04640197753906, -4.864344120025635, 1.0708081722259521, 8.676172256469727, -0.6302638053894043, -3.106443166732788, 0.4584563970565796, 0.672119140625, 0.403076171875, -0.739013671875, 0, 
146, 1069755309, -143.9154815673828, 27.02539825439453, -104.04893493652344, -4.86354398727417, 1.0852018594741821, 8.654948234558105, -0.592329204082489, -3.0820839405059814, 0.4605567157268524, 0.675537109375, 0.403076171875, -0.737060546875, 0, 
147, 1069763642, -143.92552185058594, 27.02463150024414, -104.0539321899414, -4.833526134490967, 1.0954126119613647, 8.661111831665039, -0.6374614834785461, -3.0653324127197266, 0.4325859844684601, 0.673095703125, 0.403564453125, -0.739013671875, 0, 
148, 1069771975, -143.92953491210938, 27.025297164916992, -104.05609893798828, -4.870330810546875, 1.0768721103668213, 8.687959671020508, -0.6033177375793457, -3.0161020755767822, 0.36442655324935913, 0.672607421875, 0.402587890625, -0.738525390625, 0, 
149, 1069780308, -143.93902587890625, 27.024707794189453, -104.06180572509766, -4.858039855957031, 1.0764307975769043, 8.678611755371094, -0.5660489201545715, -2.9922292232513428, 0.4961605370044708, 0.676513671875, 0.401611328125, -0.738525390625, 0, 
150, 1069788641, -143.9427032470703, 27.0264949798584, -104.06371307373047, -4.856178283691406, 1.0799394845962524, 8.651559829711914, -0.5774985551834106, -3.1395370960235596, 0.42213544249534607, 0.672607421875, 0.401611328125, -0.735595703125, 0, 
151, 1069796974, -143.95098876953125, 27.027570724487305, -104.06791687011719, -4.857551097869873, 1.0374460220336914, 8.663040161132812, -0.5370280742645264, -3.205544948577881, 0.46647369861602783, 0.672607421875, 0.399658203125, -0.737060546875, 0, 
152, 1069805307, -143.95419311523438, 27.028837203979492, -104.07008361816406, -4.870759963989258, 1.079345464706421, 8.672466278076172, -0.5038064122200012, -3.0743486881256104, 0.4084573984146118, 0.675537109375, 0.399658203125, -0.740966796875, 0, 
153, 1069813640, -143.96177673339844, 27.029773712158203, -104.07449340820312, -4.849096298217773, 1.069947600364685, 8.640374183654785, -0.4742475748062134, -3.1288814544677734, 0.467933714389801, 0.672607421875, 0.400146484375, -0.737548828125, 0, 
154, 1069821973, -143.96478271484375, 27.03186798095703, -104.07655334472656, -4.848510265350342, 1.0548056364059448, 8.675789833068848, -0.4896160960197449, -3.161565065383911, 0.4552289545536041, 0.675537109375, 0.401123046875, -0.736083984375, 0, 
155, 1069830306, -143.9723358154297, 27.032724380493164, -104.08186340332031, -4.869041919708252, 1.071438193321228, 8.663467407226562, -0.45342323184013367, -3.021045446395874, 0.5299969911575317, 0.673095703125, 0.404541015625, -0.740966796875, 0, 
156, 1069838639, -143.9754638671875, 27.034175872802734, -104.0846939086914, -4.858471870422363, 1.0840543508529663, 8.654305458068848, -0.45864853262901306, -3.0503480434417725, 0.47922956943511963, 0.672119140625, 0.403076171875, -0.739013671875, 0, 
157, 1069846972, -143.9830322265625, 27.036287307739258, -104.08902740478516, -4.864989757537842, 1.091360092163086, 8.638904571533203, -0.5382319092750549, -3.1648952960968018, 0.5208783149719238, 0.672607421875, 0.400634765625, -0.735107421875, 0, 
158, 1069855305, -143.9866180419922, 27.037141799926758, -104.09236907958984, -4.861324310302734, 1.0579179525375366, 8.664933204650879, -0.48595330119132996, -2.9600322246551514, 0.4805358350276947, 0.673095703125, 0.398681640625, -0.739990234375, 0, 
159, 1069863638, -143.9928741455078, 27.036964416503906, -104.09669494628906, -4.860172271728516, 1.0671377182006836, 8.627031326293945, -0.4099814295768738, -2.90580677986145, 0.34685516357421875, 0.675537109375, 0.398681640625, -0.736572265625, 0, 
160, 1069871971, -143.99581909179688, 27.03749656677246, -104.10018157958984, -4.865394592285156, 1.0537670850753784, 8.68655014038086, -0.40242528915405273, -2.919485092163086, 0.4695729911327362, 0.675048828125, 0.399658203125, -0.739013671875, 0, 
161, 1069880304, -144.00205993652344, 27.038097381591797, -104.10559844970703, -4.86794900894165, 1.0794634819030762, 8.672863960266113, -0.37342992424964905, -2.873891592025757, 0.49336862564086914, 0.674560546875, 0.401611328125, -0.739501953125, 0, 
162, 1069888637, -144.0054931640625, 27.037485122680664, -104.10887145996094, -4.868387699127197, 1.0741736888885498, 8.634069442749023, -0.4726850688457489, -2.823585271835327, 0.37080445885658264, 0.673095703125, 0.402587890625, -0.736572265625, 0, 
163, 1069896970, -144.01121520996094, 27.039276123046875, -104.11259460449219, -4.8552727699279785, 1.0717530250549316, 8.652620315551758, -0.431318074464798, -3.055342435836792, 0.41916412115097046, 0.673095703125, 0.399658203125, -0.739501953125, 0, 
164, 1069905303, -144.0132598876953, 27.040674209594727, -104.11587524414062, -4.8765645027160645, 1.0735280513763428, 8.686092376708984, -0.30626940727233887, -3.0171520709991455, 0.5132196545600891, 0.676025390625, 0.401611328125, -0.737548828125, 0, 
165, 1069913636, -144.01898193359375, 27.042741775512695, -104.11963653564453, -4.885447025299072, 1.0629113912582397, 8.641371726989746, -0.45362815260887146, -3.0455069541931152, 0.4364537298679352, 0.674072265625, 0.402587890625, -0.736083984375, 0, 
166, 1069921969, -144.02133178710938, 27.044780731201172, -104.12115478515625, -4.877647399902344, 1.084781527519226, 8.619585990905762, -0.43923288583755493, -3.1914823055267334, 0.4057934582233429, 0.671630859375, 0.403076171875, -0.738037109375, 0, 
167, 1069930302, -144.026123046875, 27.048839569091797, -104.12448120117188, -4.873406410217285, 1.073372483253479, 8.651152610778809, -0.39079636335372925, -3.231696605682373, 0.5252071022987366, 0.672607421875, 0.405517578125, -0.739013671875, 0, 
168, 1069938635, -144.02825927734375, 27.05146598815918, -104.12654876708984, -4.843016147613525, 1.0675511360168457, 8.636813163757324, -0.3818826675415039, -3.2136390209198, 0.4970826506614685, 0.674072265625, 0.403564453125, -0.738525390625, 0, 
169, 1069946968, -144.0329132080078, 27.05455207824707, -104.12962341308594, -4.874670028686523, 1.089736819267273, 8.647594451904297, -0.41182568669319153, -3.1179697513580322, 0.4264386296272278, 0.674560546875, 0.403076171875, -0.738525390625, 0, 
170, 1069955301, -144.0355682373047, 27.05721664428711, -104.13272094726562, -4.864822864532471, 1.0454776287078857, 8.661828994750977, -0.38787636160850525, -3.1517035961151123, 0.5878082513809204, 0.670654296875, 0.404541015625, -0.740966796875, 0, 
171, 1069963634, -144.0400390625, 27.060440063476562, -104.13636016845703, -4.845034122467041, 1.0819227695465088, 8.646787643432617, -0.3851868808269501, -3.062617301940918, 0.4716477394104004, 0.676513671875, 0.399658203125, -0.739990234375, 0, 
172, 1069971967, -144.0430145263672, 27.061248779296875, -104.13949584960938, -4.867032051086426, 1.0490950345993042, 8.65073013305664, -0.42281416058540344, -2.968843460083008, 0.45873814821243286, 0.673583984375, 0.402587890625, -0.740478515625, 0, 
173, 1069980300, -144.04696655273438, 27.065134048461914, -104.14324951171875, -4.881926536560059, 1.0747274160385132, 8.669203758239746, -0.33741629123687744, -3.089460611343384, 0.5238238573074341, 0.674560546875, 0.399169921875, -0.739013671875, 0, 
174, 1069988633, -144.0498046875, 27.067167282104492, -104.14656066894531, -4.848764896392822, 1.074482798576355, 8.645312309265137, -0.3998382091522217, -3.076141595840454, 0.5623477101325989, 0.674072265625, 0.402587890625, -0.738037109375, 0, 
175, 1069996966, -144.05389404296875, 27.07076072692871, -104.14993286132812, -4.870973587036133, 1.0561959743499756, 8.667799949645996, -0.3954581618309021, -3.05275559425354, 0.46058234572410583, 0.672119140625, 0.400146484375, -0.736572265625, 0, 
176, 1070005299, -144.055908203125, 27.07210350036621, -104.15255737304688, -4.8711137771606445, 1.060027003288269, 8.640992164611816, -0.3367503881454468, -3.054779291152954, 0.451771080493927, 0.671630859375, 0.401611328125, -0.740966796875, 0, 
177, 1070013632, -144.06011962890625, 27.07550621032715, -104.15704345703125, -4.858800888061523, 1.0796741247177124, 8.675841331481934, -0.37030500173568726, -2.9319334030151367, 0.5373226404190063, 0.671630859375, 0.402587890625, -0.737548828125, 0, 
178, 1070021965, -144.06369018554688, 27.076459884643555, -104.1611328125, -4.8672661781311035, 1.059666395187378, 8.665884017944336, -0.4451753795146942, -2.9249918460845947, 0.5518202781677246, 0.672607421875, 0.400146484375, -0.739501953125, 0, 
179, 1070030298, -144.06707763671875, 27.080402374267578, -104.16551208496094, -4.876277446746826, 1.0583652257919312, 8.623089790344238, -0.29579317569732666, -2.9637720584869385, 0.5604778528213501, 0.674560546875, 0.399658203125, -0.736083984375, 0, 
180, 1070038631, -144.06959533691406, 27.081878662109375, -104.16864013671875, -4.8710832595825195, 1.0672918558120728, 8.641722679138184, -0.3690755069255829, -3.035210132598877, 0.5039729475975037, 0.671630859375, 0.398681640625, -0.739013671875, 0, 
181, 1070046964, -144.072998046875, 27.085893630981445, -104.17192840576172, -4.850861549377441, 1.0630955696105957, 8.664644241333008, -0.3770671784877777, -3.0087764263153076, 0.4633999466896057, 0.674560546875, 0.401123046875, -0.738525390625, 0, 
182, 1070055297, -144.0758056640625, 27.08772850036621, -104.17555236816406, -4.859978199005127, 1.0833548307418823, 8.662537574768066, -0.3811142146587372, -3.0404868125915527, 0.573361873626709, 0.672119140625, 0.402099609375, -0.735107421875, 0, 
183, 1070063630, -144.07862854003906, 27.093090057373047, -104.17840576171875, -4.861588001251221, 1.072338342666626, 8.666886329650879, -0.34986481070518494, -3.1372058391571045, 0.5092750191688538, 0.672119140625, 0.401611328125, -0.739501953125, 0, 
184, 1070071963, -144.0804901123047, 27.093658447265625, -104.1810302734375, -4.8605451583862305, 1.0667058229446411, 8.676782608032227, -0.3205621540546417, -2.9793710708618164, 0.3972639739513397, 0.674560546875, 0.399169921875, -0.737548828125, 0, 
185, 1070080296, -144.08389282226562, 27.098018646240234, -104.18513488769531, -4.8593831062316895, 1.0596015453338623, 8.647843360900879, -0.37207236886024475, -2.9337520599365234, 0.5341720581054688, 0.673583984375, 0.399169921875, -0.739990234375, 0, 
186, 1070088629, -144.0865020751953, 27.099334716796875, -104.18855285644531, -4.868795394897461, 1.0556528568267822, 8.691423416137695, -0.36653968691825867, -3.001040458679199, 0.5205196738243103, 0.675048828125, 0.401123046875, -0.739501953125, 0, 
187, 1070096962, -144.0890655517578, 27.103853225708008, -104.19142150878906, -4.878407001495361, 1.0798335075378418, 8.660082817077637, -0.35721611976623535, -2.9990427494049072, 0.4282059669494629, 0.671142578125, 0.400146484375, -0.737548828125, 0, 
188, 1070105295, -144.0916290283203, 27.106121063232422, -104.19400787353516, -4.870811462402344, 1.0739045143127441, 8.687541961669922, -0.4054989516735077, -3.146836757659912, 0.5148589015007019, 0.674072265625, 0.401123046875, -0.736572265625, 0, 
189, 1070113628, -144.09446716308594, 27.112085342407227, -104.19770812988281, -4.8609185218811035, 1.0869622230529785, 8.647233963012695, -0.36213406920433044, -3.0589544773101807, 0.5954925417900085, 0.672119140625, 0.398681640625, -0.738037109375, 0, 
190, 1070121961, -144.09661865234375, 27.1142635345459, -104.20082092285156, -4.832480430603027, 1.077341079711914, 8.658295631408691, -0.3280671536922455, -3.103318214416504, 0.5544585585594177, 0.676513671875, 0.401123046875, -0.737060546875, 0, 
191, 1070130294, -144.09933471679688, 27.120115280151367, -104.20404815673828, -4.838329315185547, 1.0683141946792603, 8.653939247131348, -0.39059147238731384, -3.0552659034729004, 0.5425735712051392, 0.673583984375, 0.402099609375, -0.739501953125, 0, 
192, 1070138627, -144.101318359375, 27.119661331176758, -104.20722961425781, -4.845582485198975, 1.070117473602295, 8.665648460388184, -0.3043995797634125, -2.8433854579925537, 0.37428802251815796, 0.674072265625, 0.401611328125, -0.738525390625, 0, 
193, 1070146960, -144.1036834716797, 27.124412536621094, -104.21166229248047, -4.8810715675354, 1.0708214044570923, 8.64793586730957, -0.30135148763656616, -2.842744827270508, 0.5595813989639282, 0.675537109375, 0.401611328125, -0.736572265625, 0, 
194, 1070155293, -144.10682678222656, 27.124502182006836, -104.21598052978516, -4.863039970397949, 1.063123106956482, 8.660759925842285, -0.3804738223552704, -2.825557231903076, 0.5105557441711426, 0.676513671875, 0.399658203125, -0.738037109375, 0, 
195, 1070163626, -144.10858154296875, 27.130126953125, -104.21878051757812, -4.878922939300537, 1.068843960762024, 8.657934188842773, -0.3323959410190582, -3.0062403678894043, 0.47638633847236633, 0.671630859375, 0.400634765625, -0.739990234375, 0, 
196, 1070171959, -144.1110382080078, 27.130434036254883, -104.2215576171875, -4.857290267944336, 1.0921400785446167, 8.66989803314209, -0.3814728260040283, -2.94315242767334, 0.39352431893348694, 0.675537109375, 0.401611328125, -0.740478515625, 0, 
197, 1070180292, -144.1140594482422, 27.13750648498535, -104.22403717041016, -4.868292331695557, 1.072352647781372, 8.6343994140625, -0.5191493034362793, -3.138230323791504, 0.5429065227508545, 0.674072265625, 0.401611328125, -0.739501953125, 0, 
198, 1070188625, -144.11669921875, 27.139724731445312, -104.22672271728516, -4.879343032836914, 1.0885326862335205, 8.671296119689941, -0.4085214138031006, -3.135643243789673, 0.5200330018997192, 0.674560546875, 0.402587890625, -0.737548828125, 0, 
199, 1070196958, -144.11798095703125, 27.1456356048584, -104.22897338867188, -4.860156536102295, 1.0752841234207153, 8.679526329040527, -0.3393886685371399, -3.0142834186553955, 0.43066495656967163, 0.676513671875, 0.400146484375, -0.737060546875, 0, 
200, 1070205291, -144.12152099609375, 27.14676856994629, -104.23208618164062, -4.861432075500488, 1.0608350038528442, 8.647068977355957, -0.49466216564178467, -3.0019371509552, 0.48027974367141724, 0.673095703125, 0.401123046875, -0.739501953125, 0, 
201, 1070213624, -144.124267578125, 27.15381622314453, -104.23462677001953, -4.857058048248291, 1.0694527626037598, 8.67501163482666, -0.5160242915153503, -3.0841331481933594, 0.5300225019454956, 0.676513671875, 0.399169921875, -0.738525390625, 0, 
202, 1070221957, -144.1276092529297, 27.15570640563965, -104.23828887939453, -4.8658447265625, 1.0549616813659668, 8.659889221191406, -0.4396427273750305, -3.040717124938965, 0.5793555378913879, 0.676513671875, 0.399169921875, -0.738037109375, 0, 
203, 1070230290, -144.1291046142578, 27.1630802154541, -104.2403793334961, -4.884633541107178, 1.0680866241455078, 8.653265953063965, -0.40416696667671204, -3.117713212966919, 0.5051511526107788, 0.673095703125, 0.402099609375, -0.736083984375, 0, 
204, 1070238623, -144.13162231445312, 27.164932250976562, -104.24279022216797, -4.869359493255615, 1.0785105228424072, 8.676700592041016, -0.4090593457221985, -3.11750864982605, 0.4692656397819519, 0.676025390625, 0.400634765625, -0.738037109375, 0, 
205, 1070246956, -144.13308715820312, 27.17234992980957, -104.2444839477539, -4.861266613006592, 1.0857393741607666, 8.662134170532227, -0.44061604142189026, -3.1221959590911865, 0.46247783303260803, 0.670166015625, 0.400146484375, -0.735595703125, 0, 
206, 1070255289, -144.13648986816406, 27.17319679260254, -104.24677276611328, -4.85616397857666, 1.0559284687042236, 8.680563926696777, -0.5203531980514526, -3.0260403156280518, 0.3895028829574585, 0.674560546875, 0.396728515625, -0.735107421875, 0, 
207, 1070263622, -144.13868713378906, 27.17994499206543, -104.24925231933594, -4.844583511352539, 1.0593193769454956, 8.66557788848877, -0.49934953451156616, -2.9808056354522705, 0.4823545217514038, 0.677490234375, 0.3994140625, -0.734619140625, 0, 
208, 1070271955, -144.1423797607422, 27.180761337280273, -104.2516860961914, -4.863720417022705, 1.0626773834228516, 8.697500228881836, -0.5477347373962402, -3.0144879817962646, 0.39905694127082825, 0.676513671875, 0.40185546875, -0.736572265625, 0, 
209, 1070280288, -144.1444091796875, 27.188568115234375, -104.25347137451172, -4.856335163116455, 1.0736932754516602, 8.657183647155762, -0.5332115888595581, -3.1036770343780518, 0.4799467921257019, 0.671142578125, 0.406005859375, -0.735595703125, 0, 
210, 1070288621, -144.14796447753906, 27.191181182861328, -104.25634002685547, -4.859042167663574, 1.0644855499267578, 8.64889144897461, -0.5100562572479248, -3.161820650100708, 0.5639101266860962, 0.673095703125, 0.403076171875, -0.740478515625, 0, 
211, 1070296954, -144.14999389648438, 27.198360443115234, -104.25875091552734, -4.85395622253418, 1.0620259046554565, 8.68060302734375, -0.5140264630317688, -2.974247694015503, 0.48309725522994995, 0.672119140625, 0.402587890625, -0.739501953125, 0, 
212, 1070305287, -144.1536102294922, 27.199359893798828, -104.26114654541016, -4.854231834411621, 1.0782922506332397, 8.676002502441406, -0.5392564535140991, -3.0344159603118896, 0.41007107496261597, 0.671630859375, 0.401123046875, -0.738037109375, 0, 
213, 1070313620, -144.15518188476562, 27.207273483276367, -104.26240539550781, -4.865570545196533, 1.0727092027664185, 8.674054145812988, -0.5372586250305176, -3.096914529800415, 0.4276680648326874, 0.672607421875, 0.402587890625, -0.739013671875, 0, 
214, 1070321953, -144.15882873535156, 27.208406448364258, -104.26480102539062, -4.871885299682617, 1.0889174938201904, 8.681215286254883, -0.542253315448761, -3.0459938049316406, 0.4183701276779175, 0.676025390625, 0.398681640625, -0.738037109375, 0, 
215, 1070330286, -144.16053771972656, 27.21685028076172, -104.26639556884766, -4.856900215148926, 1.0686211585998535, 8.64900016784668, -0.5508085489273071, -3.102165699005127, 0.4890141785144806, 0.675048828125, 0.400634765625, -0.738525390625, 0, 
216, 1070338619, -144.1646728515625, 27.218063354492188, -104.27012634277344, -4.852549076080322, 1.0645791292190552, 8.65493106842041, -0.5293950438499451, -2.971353769302368, 0.5380398631095886, 0.673095703125, 0.399658203125, -0.739501953125, 0, 
217, 1070346952, -144.16644287109375, 27.22556495666504, -104.27289581298828, -4.863951683044434, 1.0646088123321533, 8.651256561279297, -0.5070338249206543, -2.914003610610962, 0.5159603357315063, 0.672119140625, 0.401123046875, -0.739501953125, 0, 
218, 1070355285, -144.16937255859375, 27.226964950561523, -104.27549743652344, -4.870638847351074, 1.0681301355361938, 8.659914016723633, -0.44719889760017395, -3.060209035873413, 0.4531029760837555, 0.674560546875, 0.401611328125, -0.739013671875, 0, 
219, 1070363618, -144.1697235107422, 27.236717224121094, -104.27667999267578, -4.8501996994018555, 1.0694829225540161, 8.662334442138672, -0.4399245083332062, -3.2067999839782715, 0.5257450342178345, 0.673095703125, 0.400634765625, -0.737060546875, 0, 
220, 1070371951, -144.17251586914062, 27.23855209350586, -104.27774047851562, -4.869228839874268, 1.05684232711792, 8.65574836730957, -0.5156145691871643, -3.198629140853882, 0.3522341847419739, 0.673583984375, 0.402099609375, -0.736572265625, 0, 
221, 1070380284, -144.17433166503906, 27.247743606567383, -104.27923583984375, -4.85050630569458, 1.0674262046813965, 8.636567115783691, -0.6074159145355225, -3.1069555282592773, 0.5082760453224182, 0.675048828125, 0.401123046875, -0.739501953125, 0, 
222, 1070388617, -144.17832946777344, 27.249895095825195, -104.28221893310547, -4.865408420562744, 1.0741453170776367, 8.688647270202637, -0.5565716624259949, -3.1109001636505127, 0.5402426719665527, 0.673583984375, 0.400146484375, -0.736572265625, 0, 
223, 1070396950, -144.17959594726562, 27.25927734375, -104.283203125, -4.856248378753662, 1.0757776498794556, 8.668366432189941, -0.5884358286857605, -3.1331589221954346, 0.46450138092041016, 0.674560546875, 0.402099609375, -0.738525390625, 0, 
224, 1070405283, -144.18272399902344, 27.260974884033203, -104.2854232788086, -4.873960018157959, 1.0594450235366821, 8.657919883728027, -0.4924848675727844, -3.112539529800415, 0.4434720575809479, 0.675537109375, 0.402587890625, -0.740966796875, 0, 
225, 1070413616, -144.18348693847656, 27.2697696685791, -104.28707885742188, -4.874769687652588, 1.0625998973846436, 8.684693336486816, -0.5032172799110413, -3.0108766555786133, 0.4741835296154022, 0.673095703125, 0.401611328125, -0.739013671875, 0, 
226, 1070421949, -144.18643188476562, 27.2711181640625, -104.29061126708984, -4.86596155166626, 1.0821325778961182, 8.714284896850586, -0.40014562010765076, -2.997352123260498, 0.5315081477165222, 0.675537109375, 0.401611328125, -0.739013671875, 0, 
227, 1070430282, -144.1859130859375, 27.28017807006836, -104.29125213623047, -4.857143402099609, 1.0791071653366089, 8.638612747192383, -0.41907450556755066, -3.071889638900757, 0.39575275778770447, 0.675537109375, 0.400146484375, -0.737060546875, 0, 
228, 1070438615, -144.18922424316406, 27.280969619750977, -104.29452514648438, -4.8507890701293945, 1.0587782859802246, 8.631171226501465, -0.4587765634059906, -2.960442066192627, 0.4690606892108917, 0.674072265625, 0.401611328125, -0.739013671875, 0, 
229, 1070446948, -144.18896484375, 27.28959083557129, -104.29631805419922, -4.869234085083008, 1.0711809396743774, 8.68364429473877, -0.4000943601131439, -2.9297049045562744, 0.45640721917152405, 0.674072265625, 0.397705078125, -0.739501953125, 0, 
230, 1070455281, -144.19168090820312, 27.290475845336914, -104.29936981201172, -4.865481376647949, 1.0587992668151855, 8.634044647216797, -0.3988136053085327, -2.982290744781494, 0.4576878845691681, 0.674560546875, 0.399169921875, -0.735595703125, 0, 
231, 1070463614, -144.19174194335938, 27.299945831298828, -104.30104064941406, -4.872681140899658, 1.071197271347046, 8.670642852783203, -0.4591607451438904, -2.9952006340026855, 0.5000795722007751, 0.673583984375, 0.399658203125, -0.739501953125, 0, 
232, 1070471947, -144.19488525390625, 27.30154037475586, -104.30443572998047, -4.887811660766602, 1.0532711744308472, 8.652437210083008, -0.4295762777328491, -3.0318288803100586, 0.5377580523490906, 0.671630859375, 0.399658203125, -0.737548828125, 0, 
233, 1070480280, -144.1945037841797, 27.312225341796875, -104.30558013916016, -4.8750691413879395, 1.0874090194702148, 8.681785583496094, -0.45380738377571106, -3.120300769805908, 0.5285881757736206, 0.671630859375, 0.401611328125, -0.737548828125, 0, 
234, 1070488613, -144.19729614257812, 27.31480598449707, -104.30814361572266, -4.87046480178833, 1.072687029838562, 8.674572944641113, -0.4327268898487091, -3.1796233654022217, 0.533659815788269, 0.675537109375, 0.400146484375, -0.739013671875, 0, 
235, 1070496946, -144.19705200195312, 27.325672149658203, -104.30961608886719, -4.873088836669922, 1.074601650238037, 8.664774894714355, -0.46512895822525024, -3.0925347805023193, 0.5589154362678528, 0.672607421875, 0.398681640625, -0.737548828125, 0, 
236, 1070505279, -144.19973754882812, 27.327919006347656, -104.31043243408203, -4.865865230560303, 1.045365571975708, 8.633086204528809, -0.5147692561149597, -3.2549800872802734, 0.3585096299648285, 0.674560546875, 0.399658203125, -0.739990234375, 0, 
237, 1070513612, -144.1982879638672, 27.339542388916016, -104.31096649169922, -4.868013858795166, 1.0503917932510376, 8.66199779510498, -0.385750412940979, -3.2030858993530273, 0.5244899392127991, 0.675048828125, 0.400634765625, -0.736572265625, 0, 
238, 1070521945, -144.2016143798828, 27.341035842895508, -104.31414031982422, -4.856645584106445, 1.070515751838684, 8.641831398010254, -0.463797003030777, -3.0332889556884766, 0.511657178401947, 0.675048828125, 0.401611328125, -0.738525390625, 0, 
239, 1070530278, -144.2003631591797, 27.353208541870117, -104.31428527832031, -4.861553192138672, 1.0920050144195557, 8.680168151855469, -0.4454059600830078, -3.2518551349639893, 0.5223638415336609, 0.674072265625, 0.401123046875, -0.739990234375, 0, 
240, 1070538611, -144.2032470703125, 27.35574722290039, -104.31733703613281, -4.840798854827881, 1.073411464691162, 8.667656898498535, -0.417127788066864, -3.1441729068756104, 0.5741302371025085, 0.671630859375, 0.400634765625, -0.739501953125, 0, 
241, 1070546944, -144.2021026611328, 27.367712020874023, -104.31766510009766, -4.852828025817871, 1.069806694984436, 8.675289154052734, -0.4587253928184509, -3.191021680831909, 0.5103764533996582, 0.669677734375, 0.397705078125, -0.739990234375, 0, 
242, 1070555277, -144.2042236328125, 27.369184494018555, -104.31964111328125, -4.857257843017578, 1.055631160736084, 8.634177207946777, -0.3881581425666809, -3.1072373390197754, 0.4037187397480011, 0.673583984375, 0.400146484375, -0.736572265625, 0, 
243, 1070563610, -144.20213317871094, 27.38123893737793, -104.31990051269531, -4.856910228729248, 1.0643011331558228, 8.670060157775879, -0.3653102219104767, -3.1787264347076416, 0.5037935972213745, 0.670166015625, 0.403564453125, -0.737060546875, 0, 
244, 1070571943, -144.20506286621094, 27.38292121887207, -104.32281494140625, -4.865327835083008, 1.071884036064148, 8.657306671142578, -0.42857739329338074, -3.071505308151245, 0.501411497592926, 0.674072265625, 0.402099609375, -0.737548828125, 0, 
245, 1070580276, -144.20333862304688, 27.39369773864746, -104.32347869873047, -4.867676734924316, 1.0806456804275513, 8.684345245361328, -0.4050122797489166, -3.0023725032806396, 0.43986043334007263, 0.675048828125, 0.402587890625, -0.739501953125, 0, 
246, 1070588609, -144.20648193359375, 27.395069122314453, -104.3263931274414, -4.8692708015441895, 1.0479203462600708, 8.659003257751465, -0.45411479473114014, -3.038360357284546, 0.4784354865550995, 0.671142578125, 0.401123046875, -0.737548828125, 0, 
247, 1070596942, -144.2051239013672, 27.407140731811523, -104.32677459716797, -4.8823442459106445, 1.0737265348434448, 8.654223442077637, -0.47693705558776855, -3.1204028129577637, 0.4955202043056488, 0.674560546875, 0.402587890625, -0.738525390625, 0, 
248, 1070605275, -144.20779418945312, 27.40865707397461, -104.3292007446289, -4.845338821411133, 1.0839085578918457, 8.653040885925293, -0.4267588257789612, -3.0844409465789795, 0.4470580816268921, 0.673095703125, 0.400634765625, -0.740478515625, 0, 
249, 1070613608, -144.2064208984375, 27.4205265045166, -104.33023834228516, -4.858417987823486, 1.0581693649291992, 8.67154312133789, -0.451476514339447, -3.0322389602661133, 0.5259498953819275, 0.674072265625, 0.401123046875, -0.738037109375, 0, 
250, 1070621941, -144.20887756347656, 27.421863555908203, -104.33292388916016, -4.845711708068848, 1.0633739233016968, 8.669169425964355, -0.38651880621910095, -3.0488367080688477, 0.4565609097480774, 0.673583984375, 0.401611328125, -0.739013671875, 0, 
251, 1070630274, -144.20724487304688, 27.433563232421875, -104.33345794677734, -4.856040954589844, 1.079876184463501, 8.673237800598145, -0.46471908688545227, -3.018663167953491, 0.46278518438339233, 0.674072265625, 0.401123046875, -0.739013671875, 0, 
252, 1070638607, -144.20962524414062, 27.435237884521484, -104.336181640625, -4.874576568603516, 1.0707706212997437, 8.690698623657227, -0.3753509819507599, -3.0803678035736084, 0.485248863697052, 0.673583984375, 0.401123046875, -0.738037109375, 0, 
253, 1070646940, -144.2076416015625, 27.44861602783203, -104.33641052246094, -4.858391761779785, 1.0706568956375122, 8.67123031616211, -0.4536793529987335, -3.1736807823181152, 0.5382703542709351, 0.671630859375, 0.400146484375, -0.739013671875, 0, 
254, 1070655273, -144.21104431152344, 27.451507568359375, -104.33910369873047, -4.866453170776367, 1.0705899000167847, 8.680431365966797, -0.4984273910522461, -3.201446533203125, 0.5652165412902832, 0.674072265625, 0.397705078125, -0.737060546875, 0, 
255, 1070663606, -144.20928955078125, 27.465469360351562, -104.33914947509766, -4.854044437408447, 1.0762407779693604, 8.641369819641113, -0.5071874856948853, -3.2128193378448486, 0.5574042201042175, 0.673583984375, 0.402587890625, -0.739990234375, 0, 
256, 1070671939, -144.21205139160156, 27.46644401550293, -104.34081268310547, -4.847234725952148, 1.0792431831359863, 8.665670394897461, -0.4771420359611511, -3.0786008834838867, 0.3415786325931549, 0.672607421875, 0.401123046875, -0.738037109375, 0, 
257, 1070680272, -144.209716796875, 27.478408813476562, -104.34086608886719, -4.869661331176758, 1.05790114402771, 8.633790016174316, -0.45127156376838684, -2.989027500152588, 0.4064338505268097, 0.674072265625, 0.402587890625, -0.736572265625, 0, 
258, 1070688605, -144.21299743652344, 27.47920799255371, -104.34443664550781, -4.839081287384033, 1.0511027574539185, 8.677043914794922, -0.43257322907447815, -2.942256212234497, 0.4960581362247467, 0.673095703125, 0.401123046875, -0.739501953125, 0, 
259, 1070696938, -144.2106170654297, 27.491613388061523, -104.3455581665039, -4.868436336517334, 1.0554804801940918, 8.66279411315918, -0.40170806646347046, -2.94110369682312, 0.5189316272735596, 0.675537109375, 0.401123046875, -0.737548828125, 0, 
260, 1070705271, -144.21412658691406, 27.493192672729492, -104.34967803955078, -4.8723835945129395, 1.0626673698425293, 8.67697811126709, -0.4337002635002136, -2.984135150909424, 0.5976441502571106, 0.669677734375, 0.399169921875, -0.737548828125, 0, 
261, 1070713604, -144.21202087402344, 27.505855560302734, -104.35100555419922, -4.865954875946045, 1.0536328554153442, 8.654790878295898, -0.43623608350753784, -2.9229938983917236, 0.5440335869789124, 0.672607421875, 0.402099609375, -0.736572265625, 0, 
262, 1070721937, -144.2145538330078, 27.507335662841797, -104.35396575927734, -4.881101608276367, 1.08511221408844, 8.64852523803711, -0.3780917525291443, -3.0463526248931885, 0.4904998540878296, 0.674072265625, 0.402099609375, -0.738037109375, 0, 
263, 1070730270, -144.21176147460938, 27.52081298828125, -104.3547592163086, -4.880993843078613, 1.0701931715011597, 8.667569160461426, -0.40252771973609924, -3.0022189617156982, 0.5431627035140991, 0.673095703125, 0.404052734375, -0.737548828125, 0, 
264, 1070738603, -144.21438598632812, 27.5230770111084, -104.3572998046875, -4.85383939743042, 1.0673935413360596, 8.69641399383545, -0.41420778632164, -3.1496798992156982, 0.5082760453224182, 0.671142578125, 0.398681640625, -0.739013671875, 0, 
265, 1070746936, -144.2106170654297, 27.5369930267334, -104.35697937011719, -4.869366645812988, 1.0555745363235474, 8.643694877624512, -0.36034107208251953, -3.0858752727508545, 0.4645269811153412, 0.674560546875, 0.400634765625, -0.741455078125, 0, 
266, 1070755269, -144.21310424804688, 27.538955688476562, -104.36021423339844, -4.8618059158325195, 1.0588706731796265, 8.660309791564941, -0.35857367515563965, -3.0750913619995117, 0.5482598543167114, 0.675048828125, 0.405029296875, -0.735107421875, 0, 
267, 1070763602, -144.209716796875, 27.553478240966797, -104.36014556884766, -4.871297836303711, 1.0751819610595703, 8.686529159545898, -0.40683087706565857, -3.1022937297821045, 0.5148077607154846, 0.672607421875, 0.402099609375, -0.737548828125, 0, 
268, 1070771935, -144.2124786376953, 27.555892944335938, -104.36209869384766, -4.868765830993652, 1.0737758874893188, 8.646475791931152, -0.46133798360824585, -3.2000374794006348, 0.4696753919124603, 0.673583984375, 0.398681640625, -0.739990234375, 0, 
269, 1070780268, -144.20877075195312, 27.57155418395996, -104.36211395263672, -4.848361968994141, 1.0841248035430908, 8.659934997558594, -0.38126787543296814, -3.172245740890503, 0.5965170860290527, 0.668212890625, 0.400146484375, -0.738037109375, 0, 
270, 1070788601, -144.21034240722656, 27.573570251464844, -104.36461639404297, -4.851113796234131, 1.0619361400604248, 8.684871673583984, -0.28867241740226746, -3.1247830390930176, 0.48950088024139404, 0.673583984375, 0.401611328125, -0.737060546875, 0, 
271, 1070796934, -144.20742797851562, 27.58846092224121, -104.36515808105469, -4.8480119705200195, 1.0515753030776978, 8.63543701171875, -0.4616453945636749, -3.036695718765259, 0.5761282444000244, 0.675048828125, 0.403076171875, -0.735107421875, 0, 
272, 1070805267, -144.20974731445312, 27.589797973632812, -104.3680648803711, -4.870617866516113, 1.0697778463363647, 8.67440128326416, -0.355986624956131, -3.0353891849517822, 0.4761558175086975, 0.672119140625, 0.401123046875, -0.737548828125, 0, 
273, 1070813600, -144.20596313476562, 27.604576110839844, -104.36784362792969, -4.841310977935791, 1.06569242477417, 8.658681869506836, -0.41423341631889343, -3.0382580757141113, 0.49116572737693787, 0.672607421875, 0.403564453125, -0.738037109375, 0, 
274, 1070821933, -144.20787048339844, 27.6064510345459, -104.37083435058594, -4.853855133056641, 1.0638903379440308, 8.677590370178223, -0.30299079418182373, -3.083954095840454, 0.5185474157333374, 0.675537109375, 0.402099609375, -0.739501953125, 0, 
275, 1070830266, -144.20420837402344, 27.62158203125, -104.37091064453125, -4.862958908081055, 1.0583583116531372, 8.6942720413208, -0.4297044277191162, -3.023709297180176, 0.5316874980926514, 0.674560546875, 0.398681640625, -0.740478515625, 0, 
276, 1070838599, -144.20681762695312, 27.623340606689453, -104.37395477294922, -4.863921642303467, 1.084367275238037, 8.66797161102295, -0.3835219442844391, -3.068431854248047, 0.5153712034225464, 0.673583984375, 0.402587890625, -0.737548828125, 0, 
277, 1070846932, -144.2028350830078, 27.63901138305664, -104.3737564086914, -4.86578369140625, 1.0678575038909912, 8.670648574829102, -0.42199447751045227, -3.0583655834198, 0.5293310284614563, 0.673095703125, 0.404541015625, -0.738037109375, 0, 
278, 1070855265, -144.20458984375, 27.63980484008789, -104.3759765625, -4.871706485748291, 1.0592446327209473, 8.638937950134277, -0.32581305503845215, -3.0269877910614014, 0.37907785177230835, 0.673095703125, 0.402099609375, -0.739990234375, 0, 
279, 1070863598, -144.19972229003906, 27.656097412109375, -104.37560272216797, -4.86338996887207, 1.069773554801941, 8.660982131958008, -0.34269288182258606, -3.0971198081970215, 0.542189359664917, 0.673583984375, 0.403564453125, -0.738037109375, 0, 
280, 1070871931, -144.2023468017578, 27.657512664794922, -104.37882995605469, -4.837462902069092, 1.0837254524230957, 8.673698425292969, -0.3734811842441559, -3.0226845741271973, 0.5102227926254272, 0.673583984375, 0.398193359375, -0.738525390625, 0, 
281, 1070880264, -144.19781494140625, 27.673778533935547, -104.37885284423828, -4.850940227508545, 1.0583888292312622, 8.673922538757324, -0.3785271644592285, -3.039538860321045, 0.5646530389785767, 0.673583984375, 0.400634765625, -0.739013671875, 0, 
282, 1070888597, -144.20028686523438, 27.674802780151367, -104.38203430175781, -4.85861873626709, 1.0659480094909668, 8.670368194580078, -0.3572160601615906, -2.988156318664551, 0.4766424596309662, 0.674072265625, 0.403076171875, -0.737548828125, 0, 
283, 1070896930, -144.19456481933594, 27.6907901763916, -104.38211059570312, -4.864046096801758, 1.079203486442566, 8.655481338500977, -0.2512756586074829, -2.971712350845337, 0.5391156673431396, 0.674560546875, 0.400146484375, -0.740966796875, 0, 
284, 1070905263, -144.1968231201172, 27.692548751831055, -104.38513946533203, -4.8493523597717285, 1.0718460083007812, 8.643146514892578, -0.34069493412971497, -3.069251298904419, 0.5177021622657776, 0.674560546875, 0.400634765625, -0.738525390625, 0, 
285, 1070913596, -144.19134521484375, 27.709421157836914, -104.3848648071289, -4.856433391571045, 1.0624462366104126, 8.676139831542969, -0.3119301497936249, -3.0485291481018066, 0.5538181662559509, 0.676025390625, 0.400634765625, -0.739013671875, 0, 
286, 1070921929, -144.19422912597656, 27.7105770111084, -104.38855743408203, -4.876560688018799, 1.0720988512039185, 8.676080703735352, -0.37837347388267517, -2.968843460083008, 0.5291516780853271, 0.670654296875, 0.400634765625, -0.735107421875, 0, 
287, 1070930262, -144.18821716308594, 27.727149963378906, -104.38733673095703, -4.887031555175781, 1.0541208982467651, 8.670506477355957, -0.3188716173171997, -3.044354200363159, 0.44426608085632324, 0.673095703125, 0.402099609375, -0.738037109375, 0, 
288, 1070938595, -144.19082641601562, 27.729480743408203, -104.38970947265625, -4.852279186248779, 1.0700997114181519, 8.65235424041748, -0.42002221941947937, -3.1654069423675537, 0.5006685853004456, 0.673583984375, 0.402587890625, -0.736572265625, 0, 
289, 1070946928, -144.18487548828125, 27.748451232910156, -104.38842010498047, -4.855923175811768, 1.0679454803466797, 8.681419372558594, -0.3475339412689209, -3.245810031890869, 0.5939300656318665, 0.673095703125, 0.400146484375, -0.738037109375, 0, 
290, 1070955261, -144.1873016357422, 27.750669479370117, -104.3905029296875, -4.853988170623779, 1.088136911392212, 8.67707633972168, -0.41405412554740906, -3.1718618869781494, 0.46742138266563416, 0.670654296875, 0.404052734375, -0.739990234375, 0, 
291, 1070963594, -144.1824493408203, 27.768383026123047, -104.38871002197266, -4.834906101226807, 1.0803534984588623, 8.668092727661133, -0.5232475399971008, -3.117995262145996, 0.4469555914402008, 0.673583984375, 0.399658203125, -0.738525390625, 0, 
292, 1070971927, -144.18531799316406, 27.769350051879883, -104.39215087890625, -4.831705093383789, 1.0457861423492432, 8.640375137329102, -0.3920002579689026, -2.967024803161621, 0.4955713748931885, 0.674560546875, 0.400146484375, -0.738037109375, 0, 
293, 1070980260, -144.1797637939453, 27.785442352294922, -104.39200592041016, -4.8647685050964355, 1.073460340499878, 8.67477035522461, -0.364823579788208, -2.822483777999878, 0.46050548553466797, 0.675048828125, 0.400146484375, -0.737548828125, 0, 
294, 1070988593, -144.18153381347656, 27.786497116088867, -104.39534759521484, -4.861630916595459, 1.082576870918274, 8.677821159362793, -0.26577329635620117, -2.9815995693206787, 0.49377840757369995, 0.674072265625, 0.399658203125, -0.735595703125, 0, 
295, 1070996926, -144.17617797851562, 27.804235458374023, -104.39543151855469, -4.843594551086426, 1.0675840377807617, 8.677838325500488, -0.3959960639476776, -2.933290958404541, 0.5799703598022461, 0.672607421875, 0.401611328125, -0.738037109375, 0, 
296, 1071005259, -144.1779022216797, 27.80477523803711, -104.39896392822266, -4.874842166900635, 1.046525478363037, 8.669465065002441, -0.24835562705993652, -2.9176409244537354, 0.4734407067298889, 0.672119140625, 0.399658203125, -0.737548828125, 0, 
297, 1071013592, -144.1710968017578, 27.8228816986084, -104.39739990234375, -4.858465194702148, 1.0735477209091187, 8.679571151733398, -0.33303630352020264, -3.0365419387817383, 0.45504966378211975, 0.671630859375, 0.400634765625, -0.738037109375, 0, 
298, 1071021925, -144.17295837402344, 27.82482147216797, -104.399658203125, -4.863593578338623, 1.073423981666565, 8.697694778442383, -0.3337022364139557, -3.133594036102295, 0.46088969707489014, 0.675537109375, 0.401123046875, -0.737060546875, 0, 
299, 1071030258, -144.16665649414062, 27.843597412109375, -104.39862060546875, -4.861517429351807, 1.0699100494384766, 8.685422897338867, -0.3820619583129883, -3.02852463722229, 0.5323022603988647, 0.671142578125, 0.399658203125, -0.739013671875, 0, 
300, 1071038591, -144.16920471191406, 27.845111846923828, -104.40167236328125, -4.860576152801514, 1.0793815851211548, 8.664176940917969, -0.3729688823223114, -3.0448408126831055, 0.4987476170063019, 0.672119140625, 0.397705078125, -0.739013671875, 0, 
301, 1071046924, -144.16163635253906, 27.86427116394043, -104.39862060546875, -4.845297813415527, 1.0697523355484009, 8.670188903808594, -0.35959821939468384, -3.15242075920105, 0.372033953666687, 0.668701171875, 0.401123046875, -0.739501953125, 0, 
302, 1071055257, -144.1640167236328, 27.865259170532227, -104.40250396728516, -4.854496479034424, 1.0794178247451782, 8.654184341430664, -0.30521923303604126, -2.940847158432007, 0.5361699461936951, 0.672119140625, 0.404541015625, -0.737548828125, 0, 
303, 1071063590, -144.15635681152344, 27.883319854736328, -104.4019546508789, -4.852853298187256, 1.0721913576126099, 8.654668807983398, -0.23162953555583954, -2.8575243949890137, 0.4924721121788025, 0.672607421875, 0.403564453125, -0.739501953125, 0, 
304, 1071071923, -144.157958984375, 27.883024215698242, -104.40597534179688, -4.850887775421143, 1.0537294149398804, 8.668713569641113, -0.2039661705493927, -2.806603193283081, 0.45656096935272217, 0.673095703125, 0.399658203125, -0.740478515625, 0, 
305, 1071080256, -144.15000915527344, 27.90061378479004, -104.40571594238281, -4.840366363525391, 1.0771548748016357, 8.69057559967041, -0.1944376677274704, -2.7509944438934326, 0.4662686884403229, 0.672607421875, 0.398193359375, -0.738037109375, 0, 
306, 1071088589, -144.1519012451172, 27.900516510009766, -104.41020965576172, -4.855457305908203, 1.0540260076522827, 8.681686401367188, -0.2114967256784439, -2.795588970184326, 0.5130658745765686, 0.675048828125, 0.400146484375, -0.739013671875, 0, 
307, 1071096922, -144.14370727539062, 27.91819953918457, -104.40953826904297, -4.876410007476807, 1.0790280103683472, 8.648728370666504, -0.2086535543203354, -2.745640993118286, 0.4262080490589142, 0.675537109375, 0.402099609375, -0.738037109375, 0, 
308, 1071105255, -144.14625549316406, 27.918209075927734, -104.41386413574219, -4.849305629730225, 1.0577188730239868, 8.691402435302734, -0.29945603013038635, -2.819230794906616, 0.5040754079818726, 0.669677734375, 0.401123046875, -0.740966796875, 0, 
309, 1071113588, -144.1375732421875, 27.93854331970215, -104.4129409790039, -4.871542930603027, 1.081017255783081, 8.655671119689941, -0.18442249298095703, -2.9822652339935303, 0.5786128044128418, 0.672119140625, 0.401611328125, -0.737060546875, 0, 
310, 1071121921, -144.13943481445312, 27.940074920654297, -104.41578674316406, -4.879375457763672, 1.06283438205719, 8.670158386230469, -0.30040374398231506, -3.057417392730713, 0.4824056923389435, 0.672607421875, 0.404052734375, -0.740966796875, 0, 
311, 1071130254, -144.1321258544922, 27.961502075195312, -104.4134521484375, -4.878416061401367, 1.0785890817642212, 8.715563774108887, -0.4483259320259094, -3.135002851486206, 0.5182399749755859, 0.672119140625, 0.403564453125, -0.738037109375, 0, 
312, 1071138587, -144.13427734375, 27.96419334411621, -104.41545104980469, -4.866247653961182, 1.0502195358276367, 8.634804725646973, -0.38203632831573486, -3.2226808071136475, 0.49318927526474, 0.672607421875, 0.401611328125, -0.737548828125, 0, 
313, 1071146920, -144.12547302246094, 27.986614227294922, -104.41264343261719, -4.873785972595215, 1.0645610094070435, 8.67048168182373, -0.3152856230735779, -3.220529079437256, 0.5313288569450378, 0.671630859375, 0.402587890625, -0.738525390625, 0, 
314, 1071155253, -144.1277618408203, 27.989757537841797, -104.41493225097656, -4.874317169189453, 1.05695641040802, 8.69363784790039, -0.38178014755249023, -3.247936248779297, 0.5488746166229248, 0.673095703125, 0.403564453125, -0.736572265625, 0, 
315, 1071163586, -144.11973571777344, 28.01252555847168, -104.41175842285156, -4.845856189727783, 1.0839488506317139, 8.680171966552734, -0.44858208298683167, -3.2353594303131104, 0.5076357126235962, 0.670654296875, 0.400146484375, -0.736083984375, 0, 
316, 1071171919, -144.12229919433594, 28.013540267944336, -104.41452026367188, -4.843388080596924, 1.0913445949554443, 8.668227195739746, -0.3898999094963074, -3.0136430263519287, 0.44137170910835266, 0.674072265625, 0.401123046875, -0.736083984375, 0, 
317, 1071180252, -144.11376953125, 28.03464126586914, -104.41316223144531, -4.852026462554932, 1.0846024751663208, 8.648042678833008, -0.3051424026489258, -2.9185116291046143, 0.5332244038581848, 0.673583984375, 0.402099609375, -0.737548828125, 0, 
318, 1071188585, -144.11669921875, 28.034290313720703, -104.41669464111328, -4.865878582000732, 1.0695968866348267, 8.692253112792969, -0.38841429352760315, -2.8326783180236816, 0.4100198745727539, 0.673583984375, 0.402099609375, -0.736083984375, 0, 
319, 1071196918, -144.1082000732422, 28.05506706237793, -104.4157485961914, -4.866375923156738, 1.0585938692092896, 8.692832946777344, -0.30626940727233887, -2.821536064147949, 0.5242849588394165, 0.671630859375, 0.402099609375, -0.739501953125, 0, 
320, 1071205251, -144.11044311523438, 28.054067611694336, -104.4199447631836, -4.866023540496826, 1.070658802986145, 8.630870819091797, -0.2696666121482849, -2.7274036407470703, 0.42228907346725464, 0.675048828125, 0.400634765625, -0.740478515625, 0, 
321, 1071213584, -144.10206604003906, 28.075824737548828, -104.41902160644531, -4.856738090515137, 1.0695784091949463, 8.691987991333008, -0.335495263338089, -2.87273907661438, 0.5835050940513611, 0.674072265625, 0.401611328125, -0.740478515625, 0, 
322, 1071221917, -144.1050262451172, 28.07686996459961, -104.42249298095703, -4.862387180328369, 1.0833957195281982, 8.640135765075684, -0.3982757329940796, -2.971635103225708, 0.5032556653022766, 0.674072265625, 0.404052734375, -0.739990234375, 0, 
323, 1071230250, -144.09701538085938, 28.100128173828125, -104.42115020751953, -4.887722015380859, 1.0582497119903564, 8.649674415588379, -0.42534998059272766, -3.000476837158203, 0.6347847580909729, 0.671142578125, 0.402099609375, -0.739013671875, 0, 
324, 1071238583, -144.0987091064453, 28.101579666137695, -104.42375183105469, -4.851434707641602, 1.0678683519363403, 8.682538986206055, -0.29589560627937317, -3.0661520957946777, 0.4572269022464752, 0.675537109375, 0.399169921875, -0.738525390625, 0, 
325, 1071246916, -144.08934020996094, 28.125288009643555, -104.42042541503906, -4.866899013519287, 1.0699701309204102, 8.691265106201172, -0.39655959606170654, -3.1244754791259766, 0.48373764753341675, 0.672119140625, 0.400146484375, -0.739990234375, 0, 
326, 1071255249, -144.0926055908203, 28.127105712890625, -104.42391204833984, -4.848960876464844, 1.0769091844558716, 8.686123847961426, -0.4313949644565582, -3.045866012573242, 0.5576604008674622, 0.672607421875, 0.400634765625, -0.738525390625, 0, 
327, 1071263582, -144.08274841308594, 28.152711868286133, -104.4200668334961, -4.85747766494751, 1.0758209228515625, 8.654861450195312, -0.3851611912250519, -3.2995998859405518, 0.5569430589675903, 0.670654296875, 0.401611328125, -0.737548828125, 0, 
328, 1071271915, -144.08575439453125, 28.155635833740234, -104.42239379882812, -4.849709987640381, 1.0790761709213257, 8.667943000793457, -0.46804895997047424, -3.2261641025543213, 0.5356833338737488, 0.672119140625, 0.400634765625, -0.739501953125, 0, 
329, 1071280248, -144.07601928710938, 28.181013107299805, -104.4189224243164, -4.8690619468688965, 1.0994306802749634, 8.683423042297363, -0.4040389657020569, -3.2090537548065186, 0.5542023777961731, 0.674072265625, 0.402587890625, -0.738525390625, 0, 
330, 1071288581, -144.0785369873047, 28.18339729309082, -104.42200469970703, -4.852661609649658, 1.0556613206863403, 8.649786949157715, -0.36464425921440125, -3.125859022140503, 0.5619635581970215, 0.674072265625, 0.402099609375, -0.740966796875, 0, 
331, 1071296914, -144.0690460205078, 28.2084903717041, -104.41845703125, -4.840060710906982, 1.1194556951522827, 8.650228500366211, -0.4539867341518402, -3.1424572467803955, 0.5124512314796448, 0.674072265625, 0.400634765625, -0.736083984375, 0, 
332, 1071305247, -144.0723876953125, 28.21086883544922, -104.42150115966797, -4.8669352531433105, 1.0540601015090942, 8.653901100158691, -0.46676820516586304, -3.126345634460449, 0.5595813989639282, 0.672119140625, 0.398193359375, -0.737060546875, 0, 
333, 1071313580, -144.06304931640625, 28.235740661621094, -104.41908264160156, -4.8635663986206055, 1.0478581190109253, 8.68955135345459, -0.43311113119125366, -3.0085716247558594, 0.5730288624763489, 0.672119140625, 0.400146484375, -0.736572265625, 0, 
334, 1071321913, -144.06536865234375, 28.238784790039062, -104.42212677001953, -4.85888671875, 1.0754356384277344, 8.680994033813477, -0.34235987067222595, -3.1908679008483887, 0.607326328754425, 0.670166015625, 0.401123046875, -0.738037109375, 0, 
335, 1071330246, -144.0553741455078, 28.264217376708984, -104.41889190673828, -4.858035087585449, 1.0649915933609009, 8.650306701660156, -0.4220713973045349, -3.067586660385132, 0.5322254300117493, 0.673095703125, 0.400634765625, -0.738525390625, 0, 
336, 1071338579, -144.05897521972656, 28.26633644104004, -104.42081451416016, -4.8555707931518555, 1.0773463249206543, 8.66594409942627, -0.559645414352417, -3.17201566696167, 0.44616153836250305, 0.675537109375, 0.405517578125, -0.739013671875, 0, 
337, 1071346912, -144.0478515625, 28.292875289916992, -104.41728210449219, -4.850577354431152, 1.051541805267334, 8.665741920471191, -0.323559045791626, -3.1465041637420654, 0.5652165412902832, 0.670654296875, 0.402587890625, -0.739013671875, 0, 
338, 1071355245, -144.05032348632812, 28.294292449951172, -104.420654296875, -4.85288667678833, 1.0756416320800781, 8.658440589904785, -0.34338444471359253, -3.0143344402313232, 0.5202635526657104, 0.676025390625, 0.402587890625, -0.736083984375, 0, 
339, 1071363578, -144.03924560546875, 28.321128845214844, -104.41708374023438, -4.856074333190918, 1.0796059370040894, 8.65058708190918, -0.3498135805130005, -3.1315195560455322, 0.5640382766723633, 0.671142578125, 0.399169921875, -0.739501953125, 0, 
340, 1071371911, -144.04214477539062, 28.321901321411133, -104.42133331298828, -4.849783897399902, 1.0631458759307861, 8.644886016845703, -0.3464837670326233, -2.8979177474975586, 0.5479013323783875, 0.673095703125, 0.400146484375, -0.736572265625, 0, 
341, 1071380244, -144.03099060058594, 28.348913192749023, -104.41783905029297, -4.858673095703125, 1.0611127614974976, 8.674691200256348, -0.36254388093948364, -3.0969150066375732, 0.5637052655220032, 0.673095703125, 0.401123046875, -0.737548828125, 0, 
342, 1071388577, -144.03384399414062, 28.3513240814209, -104.42112731933594, -4.855265140533447, 1.0664297342300415, 8.68453598022461, -0.3908732235431671, -3.116509437561035, 0.5837611556053162, 0.673583984375, 0.404541015625, -0.739990234375, 0, 
343, 1071396910, -144.02273559570312, 28.37879180908203, -104.41718292236328, -4.868902683258057, 1.0668892860412598, 8.68025016784668, -0.4172302484512329, -3.12406587600708, 0.541318416595459, 0.672607421875, 0.401611328125, -0.739501953125, 0, 
344, 1071405243, -144.02471923828125, 28.380495071411133, -104.42008209228516, -4.85722017288208, 1.0543383359909058, 8.64963150024414, -0.307883083820343, -3.0708649158477783, 0.5005918145179749, 0.673095703125, 0.400146484375, -0.738037109375, 0, 
345, 1071413576, -144.0124053955078, 28.408117294311523, -104.41552734375, -4.838979721069336, 1.0594751834869385, 8.647859573364258, -0.32939907908439636, -3.1297006607055664, 0.48688822984695435, 0.673583984375, 0.400146484375, -0.735595703125, 0, 
346, 1071421909, -144.0154266357422, 28.41054344177246, -104.41907501220703, -4.849828720092773, 1.092663049697876, 8.656813621520996, -0.3973023593425751, -3.100423812866211, 0.6042270064353943, 0.674072265625, 0.399658203125, -0.739990234375, 0, 
347, 1071430242, -144.00279235839844, 28.43817901611328, -104.415283203125, -4.858130931854248, 1.0761761665344238, 8.67736530303955, -0.2670539915561676, -3.035696506500244, 0.533967137336731, 0.671142578125, 0.400634765625, -0.737548828125, 0, 
348, 1071438575, -144.00511169433594, 28.44084930419922, -104.41809844970703, -4.8347344398498535, 1.0959298610687256, 8.671304702758789, -0.3554999530315399, -3.1680710315704346, 0.5609388947486877, 0.672607421875, 0.401611328125, -0.740478515625, 0, 
349, 1071446908, -143.9930419921875, 28.468467712402344, -104.41455078125, -4.861048698425293, 1.0749613046646118, 8.659444808959961, -0.34195002913475037, -2.973992109298706, 0.5337879061698914, 0.670166015625, 0.400634765625, -0.739501953125, 0, 
350, 1071455241, -143.9947967529297, 28.470577239990234, -104.4169921875, -4.842773914337158, 1.0816909074783325, 8.6705322265625, -0.30990663170814514, -3.138461112976074, 0.48696500062942505, 0.675537109375, 0.401611328125, -0.737548828125, 0, 
351, 1071463574, -143.98284912109375, 28.498737335205078, -104.41280364990234, -4.85245418548584, 1.0687689781188965, 8.693253517150879, -0.4172302782535553, -3.0172033309936523, 0.503076434135437, 0.673583984375, 0.403076171875, -0.737060546875, 0, 
352, 1071471907, -143.98500061035156, 28.499977111816406, -104.41670989990234, -4.862126350402832, 1.0654871463775635, 8.691974639892578, -0.27286842465400696, -2.9637205600738525, 0.5531778335571289, 0.675537109375, 0.401123046875, -0.738525390625, 0, 
353, 1071480240, -143.97293090820312, 28.529050827026367, -104.41314697265625, -4.860089302062988, 1.0824360847473145, 8.6687650680542, -0.38997673988342285, -3.016998291015625, 0.5997188687324524, 0.671630859375, 0.402099609375, -0.737548828125, 0, 
354, 1071488573, -143.97531127929688, 28.530916213989258, -104.41596984863281, -4.8525824546813965, 1.0696099996566772, 8.660822868347168, -0.3604435324668884, -3.0905113220214844, 0.5062012672424316, 0.669677734375, 0.402587890625, -0.739013671875, 0, 
355, 1071496906, -143.9626922607422, 28.560562133789062, -104.41178131103516, -4.835821628570557, 1.087354302406311, 8.670692443847656, -0.38636514544487, -3.0612339973449707, 0.569391667842865, 0.674072265625, 0.400634765625, -0.738525390625, 0, 
356, 1071505239, -143.9651641845703, 28.562406539916992, -104.41472625732422, -4.8440375328063965, 1.0787312984466553, 8.656109809875488, -0.3614424765110016, -3.080828905105591, 0.5129634141921997, 0.673095703125, 0.402099609375, -0.739013671875, 0, 
357, 1071513572, -143.95172119140625, 28.5918025970459, -104.40943908691406, -4.832794189453125, 1.0818935632705688, 8.6683931350708, -0.3737885653972626, -3.0569565296173096, 0.4368892312049866, 0.669677734375, 0.400634765625, -0.739990234375, 0, 
358, 1071521905, -143.95346069335938, 28.593372344970703, -104.4114761352539, -4.871293544769287, 1.0551410913467407, 8.687910079956055, -0.32842570543289185, -3.111642599105835, 0.4162953495979309, 0.672607421875, 0.402099609375, -0.737548828125, 0, 
359, 1071530238, -143.93972778320312, 28.624347686767578, -104.40682220458984, -4.841902256011963, 1.0860828161239624, 8.658924102783203, -0.3234565854072571, -3.1216580867767334, 0.5835819840431213, 0.672119140625, 0.401123046875, -0.739990234375, 0, 
360, 1071538571, -143.94204711914062, 28.62588882446289, -104.4101791381836, -4.842040061950684, 1.0811327695846558, 8.635814666748047, -0.3218172788619995, -3.0257842540740967, 0.5268464088439941, 0.673095703125, 0.400634765625, -0.737548828125, 0, 
361, 1071546904, -143.9286346435547, 28.656475067138672, -104.4059829711914, -4.844174385070801, 1.0845797061920166, 8.657596588134766, -0.36026421189308167, -3.0061120986938477, 0.5778186917304993, 0.673583984375, 0.402587890625, -0.737548828125, 0, 
362, 1071555237, -143.9304962158203, 28.657779693603516, -104.4096908569336, -4.858964443206787, 1.0739190578460693, 8.671847343444824, -0.24935460090637207, -2.9825985431671143, 0.5412160158157349, 0.673095703125, 0.402099609375, -0.739501953125, 0, 
363, 1071563570, -143.91664123535156, 28.688030242919922, -104.40571594238281, -4.840867042541504, 1.0425769090652466, 8.663596153259277, -0.3141842484474182, -2.909597873687744, 0.5619891285896301, 0.675048828125, 0.404052734375, -0.740478515625, 0, 
364, 1071571903, -143.91806030273438, 28.689407348632812, -104.4095230102539, -4.863134860992432, 1.056883454322815, 8.629385948181152, -0.18923795223236084, -2.9819579124450684, 0.5527679920196533, 0.673095703125, 0.403564453125, -0.738525390625, 0, 
365, 1071580236, -143.90383911132812, 28.7221622467041, -104.40489959716797, -4.856313705444336, 1.0887854099273682, 8.6910400390625, -0.33429139852523804, -3.1423544883728027, 0.6566849946975708, 0.673095703125, 0.400634765625, -0.736572265625, 0, 
366, 1071588569, -143.906494140625, 28.725265502929688, -104.40853118896484, -4.842416763305664, 1.0739872455596924, 8.68764591217041, -0.3441016376018524, -3.160412311553955, 0.6606295108795166, 0.673583984375, 0.400146484375, -0.738525390625, 0, 
367, 1071596902, -143.89149475097656, 28.757688522338867, -104.4028091430664, -4.867691993713379, 1.0753931999206543, 8.65769100189209, -0.3282976746559143, -3.1280362606048584, 0.5264366269111633, 0.672119140625, 0.402099609375, -0.739013671875, 0, 
368, 1071605235, -143.8932647705078, 28.75870704650879, -104.40647888183594, -4.850355625152588, 1.0840092897415161, 8.671045303344727, -0.23816117644309998, -2.95649790763855, 0.5142185688018799, 0.671630859375, 0.399658203125, -0.740478515625, 0, 
369, 1071613568, -143.87811279296875, 28.790241241455078, -104.40116882324219, -4.872528076171875, 1.0594249963760376, 8.654623985290527, -0.31034207344055176, -2.9617741107940674, 0.477308452129364, 0.672607421875, 0.398681640625, -0.739013671875, 0, 
370, 1071621901, -143.87953186035156, 28.792369842529297, -104.40409851074219, -4.856139183044434, 1.0609524250030518, 8.654631614685059, -0.2387246936559677, -3.1081337928771973, 0.5324815511703491, 0.674072265625, 0.400634765625, -0.736083984375, 0, 
371, 1071630234, -143.8643035888672, 28.82465171813965, -104.39813995361328, -4.846963882446289, 1.071625828742981, 8.66374397277832, -0.3590347170829773, -3.0251691341400146, 0.4560742676258087, 0.672607421875, 0.402099609375, -0.739013671875, 0, 
372, 1071638567, -143.8662872314453, 28.825878143310547, -104.40193939208984, -4.866001605987549, 1.0690736770629883, 8.639984130859375, -0.25573253631591797, -2.9666154384613037, 0.5418819785118103, 0.672607421875, 0.399169921875, -0.737548828125, 0, 
373, 1071646900, -143.85061645507812, 28.857778549194336, -104.39661407470703, -4.8437395095825195, 1.0898059606552124, 8.682286262512207, -0.297176331281662, -2.8962526321411133, 0.46708837151527405, 0.675537109375, 0.400634765625, -0.739013671875, 0, 
374, 1071655233, -143.8533172607422, 28.85909652709961, -104.40038299560547, -4.857353687286377, 1.0868358612060547, 8.670427322387695, -0.34620201587677, -2.9786794185638428, 0.5443665385246277, 0.673095703125, 0.401123046875, -0.739990234375, 0, 
375, 1071663566, -143.83717346191406, 28.89142417907715, -104.3954086303711, -4.865049362182617, 1.0796838998794556, 8.681856155395508, -0.244052454829216, -2.8629543781280518, 0.5074307918548584, 0.673583984375, 0.400634765625, -0.739990234375, 0, 
376, 1071671899, -143.8397674560547, 28.892038345336914, -104.40017700195312, -4.859691619873047, 1.076456069946289, 8.661271095275879, -0.2706400454044342, -2.8485848903656006, 0.580559492111206, 0.673095703125, 0.403076171875, -0.739501953125, 0, 
377, 1071680232, -143.8234405517578, 28.92510414123535, -104.39515686035156, -4.872679233551025, 1.0533196926116943, 8.65630054473877, -0.25025105476379395, -2.8863143920898438, 0.5357088446617126, 0.673095703125, 0.401611328125, -0.739501953125, 0, 
378, 1071688565, -143.82546997070312, 28.926176071166992, -104.398681640625, -4.860084533691406, 1.0804810523986816, 8.663033485412598, -0.2749943733215332, -2.9679980278015137, 0.5089932084083557, 0.672119140625, 0.401123046875, -0.737548828125, 0, 
379, 1071696898, -143.808837890625, 28.95954132080078, -104.39300537109375, -4.851452827453613, 1.076359510421753, 8.682891845703125, -0.27663376927375793, -2.9002740383148193, 0.4785635471343994, 0.672607421875, 0.401123046875, -0.737548828125, 0, 
380, 1071705231, -143.8111572265625, 28.961048126220703, -104.39665222167969, -4.8567399978637695, 1.06923246383667, 8.688140869140625, -0.3018125295639038, -3.004319429397583, 0.5487209558486938, 0.673583984375, 0.401123046875, -0.737548828125, 0, 
381, 1071713564, -143.7943878173828, 28.99457359313965, -104.3906021118164, -4.860620498657227, 1.0627105236053467, 8.656248092651367, -0.3094455897808075, -2.887979507446289, 0.4386821985244751, 0.673583984375, 0.398681640625, -0.739501953125, 0, 
382, 1071721897, -143.79632568359375, 28.995935440063477, -104.39336395263672, -4.849115371704102, 1.0842053890228271, 8.668584823608398, -0.3080880045890808, -3.0462496280670166, 0.4616069197654724, 0.671142578125, 0.400634765625, -0.739013671875, 0, 
383, 1071730230, -143.77978515625, 29.031108856201172, -104.38739776611328, -4.87376594543457, 1.0668983459472656, 8.658554077148438, -0.3526824116706848, -2.9856977462768555, 0.5466718673706055, 0.673095703125, 0.400146484375, -0.739013671875, 0, 
384, 1071738563, -143.78306579589844, 29.032920837402344, -104.39006805419922, -4.872493743896484, 1.0942368507385254, 8.663617134094238, -0.4743500351905823, -3.0936617851257324, 0.488425076007843, 0.673095703125, 0.399169921875, -0.739501953125, 0, 
385, 1071746896, -143.76617431640625, 29.06935691833496, -104.3828353881836, -4.844392776489258, 1.0790249109268188, 8.646482467651367, -0.41395166516304016, -3.135925054550171, 0.5091982483863831, 0.673095703125, 0.399658203125, -0.739013671875, 0, 
386, 1071755229, -143.76834106445312, 29.07077407836914, -104.3848876953125, -4.859021186828613, 1.071460247039795, 8.681578636169434, -0.3761194050312042, -3.0927135944366455, 0.4060240089893341, 0.671630859375, 0.400146484375, -0.739501953125, 0, 
387, 1071763562, -143.7500457763672, 29.106403350830078, -104.37800598144531, -4.854551315307617, 1.0739796161651611, 8.642961502075195, -0.24797141551971436, -2.979933977127075, 0.46204233169555664, 0.671630859375, 0.402099609375, -0.737548828125, 0, 
388, 1071771895, -143.75161743164062, 29.107412338256836, -104.3813705444336, -4.8500189781188965, 1.0867798328399658, 8.647143363952637, -0.22924740612506866, -2.97394061088562, 0.48683688044548035, 0.677001953125, 0.401123046875, -0.738525390625, 0, 
389, 1071780228, -143.732666015625, 29.1437931060791, -104.37409210205078, -4.855105400085449, 1.0938079357147217, 8.682578086853027, -0.21879678964614868, -3.021608591079712, 0.46404027938842773, 0.671142578125, 0.402099609375, -0.738037109375, 0, 
390, 1071788561, -143.73448181152344, 29.14392852783203, -104.3778305053711, -4.86733865737915, 1.0761131048202515, 8.67978286743164, -0.23518991470336914, -2.8650546073913574, 0.45725250244140625, 0.672607421875, 0.400634765625, -0.738525390625, 0, 
391, 1071796894, -143.71519470214844, 29.18018341064453, -104.37110137939453, -4.87022066116333, 1.0840566158294678, 8.664545059204102, -0.17156414687633514, -2.918947219848633, 0.4791783392429352, 0.672119140625, 0.401123046875, -0.739990234375, 0, 
392, 1071805227, -143.71701049804688, 29.181901931762695, -104.37482452392578, -4.851429462432861, 1.0763123035430908, 8.669330596923828, -0.2377513349056244, -3.020993947982788, 0.5677523016929626, 0.675537109375, 0.400146484375, -0.737060546875, 0, 
393, 1071813560, -143.6983184814453, 29.21914291381836, -104.3679428100586, -4.851461410522461, 1.091605544090271, 8.646556854248047, -0.276044636964798, -2.9673070907592773, 0.5157554149627686, 0.672119140625, 0.398681640625, -0.738525390625, 0, 
394, 1071821893, -143.70037841796875, 29.219181060791016, -104.3720703125, -4.862790107727051, 1.080742359161377, 8.665144920349121, -0.24241313338279724, -2.8325250148773193, 0.48299485445022583, 0.673095703125, 0.399169921875, -0.739990234375, 0, 
395, 1071830226, -143.6815643310547, 29.256628036499023, -104.36575317382812, -4.856328964233398, 1.083021879196167, 8.645279884338379, -0.2566034197807312, -2.8973286151885986, 0.5575834512710571, 0.671142578125, 0.399658203125, -0.738037109375, 0, 
396, 1071838559, -143.68479919433594, 29.257877349853516, -104.37010955810547, -4.847832679748535, 1.0496703386306763, 8.658703804016113, -0.3681534230709076, -2.93557071685791, 0.5867580771446228, 0.675537109375, 0.398681640625, -0.738037109375, 0, 
397, 1071846892, -143.66566467285156, 29.296327590942383, -104.36289978027344, -4.8476176261901855, 1.0828280448913574, 8.656671524047852, -0.29633110761642456, -2.9954311847686768, 0.5336854457855225, 0.672607421875, 0.401611328125, -0.741455078125, 0, 
398, 1071855225, -143.66783142089844, 29.297359466552734, -104.36697387695312, -4.855128765106201, 1.0779390335083008, 8.647734642028809, -0.25621920824050903, -2.930371046066284, 0.5490027070045471, 0.672119140625, 0.400634765625, -0.737060546875, 0, 
399, 1071863558, -143.6484832763672, 29.33539581298828, -104.3599853515625, -4.847725868225098, 1.0629618167877197, 8.661892890930176, -0.28124430775642395, -2.886749744415283, 0.5006430149078369, 0.674072265625, 0.402587890625, -0.741455078125, 0, 
400, 1071871891, -143.65037536621094, 29.33565330505371, -104.36418151855469, -4.856355667114258, 1.1013360023498535, 8.68856430053711, -0.21784909069538116, -2.8466126918792725, 0.5036911368370056, 0.672119140625, 0.399169921875, -0.739990234375, 0, 
401, 1071880224, -143.63084411621094, 29.375102996826172, -104.35655212402344, -4.8590850830078125, 1.0731779336929321, 8.643487930297852, -0.32489097118377686, -3.0067014694213867, 0.5296128392219543, 0.673095703125, 0.400146484375, -0.738525390625, 0, 
402, 1071888557, -143.63265991210938, 29.37586212158203, -104.36028289794922, -4.838602066040039, 1.0645723342895508, 8.687186241149902, -0.23406289517879486, -2.92547869682312, 0.5010272264480591, 0.674072265625, 0.398193359375, -0.740478515625, 0, 
403, 1071896890, -143.61265563964844, 29.413789749145508, -104.35322570800781, -4.852774620056152, 1.0818575620651245, 8.675354957580566, -0.25913920998573303, -2.7665934562683105, 0.4523090124130249, 0.674560546875, 0.401611328125, -0.737548828125, 0, 
404, 1071905223, -143.61492919921875, 29.41411781311035, -104.35733032226562, -4.862779140472412, 1.0659700632095337, 8.670964241027832, -0.2677968442440033, -2.86087965965271, 0.49977216124534607, 0.673095703125, 0.400634765625, -0.737060546875, 0, 
405, 1071913556, -143.5938262939453, 29.453401565551758, -104.34993743896484, -4.864424228668213, 1.0992941856384277, 8.669232368469238, -0.1755855679512024, -2.8590352535247803, 0.49977216124534607, 0.670654296875, 0.400146484375, -0.739990234375, 0, 
406, 1071921889, -143.59439086914062, 29.454545974731445, -104.35424041748047, -4.850789546966553, 1.0846545696258545, 8.66718864440918, -0.04789862036705017, -2.9276814460754395, 0.5764355659484863, 0.674072265625, 0.400634765625, -0.738525390625, 0, 
407, 1071930222, -143.5727996826172, 29.494796752929688, -104.34677124023438, -4.885752201080322, 1.0719859600067139, 8.64249324798584, -0.14979206025600433, -2.9027585983276367, 0.5381934642791748, 0.671142578125, 0.402099609375, -0.738525390625, 0, 
408, 1071938555, -143.5746612548828, 29.49549674987793, -104.35090637207031, -4.854475021362305, 1.0931390523910522, 8.649395942687988, -0.21270060539245605, -2.8935375213623047, 0.5324559211730957, 0.673583984375, 0.400146484375, -0.735595703125, 0, 
409, 1071946888, -143.55250549316406, 29.5361385345459, -104.34260559082031, -4.862416744232178, 1.0771580934524536, 8.651326179504395, -0.15573453903198242, -2.933342218399048, 0.4774877429008484, 0.672607421875, 0.401611328125, -0.739501953125, 0, 
410, 1071955221, -143.55435180664062, 29.53665542602539, -104.34652709960938, -4.854640483856201, 1.0846459865570068, 8.643588066101074, -0.22391967475414276, -2.8898491859436035, 0.4989268481731415, 0.674072265625, 0.400146484375, -0.738037109375, 0, 
411, 1071963554, -143.53335571289062, 29.577054977416992, -104.33934783935547, -4.846320629119873, 1.092029333114624, 8.634830474853516, -0.2554507851600647, -2.781142473220825, 0.5326608419418335, 0.673583984375, 0.398681640625, -0.739990234375, 0, 
412, 1071971887, -143.53404235839844, 29.57659149169922, -104.34291076660156, -4.872919082641602, 1.0767768621444702, 8.62708568572998, -0.105274498462677, -2.818206310272217, 0.3983910083770752, 0.673095703125, 0.399658203125, -0.739501953125, 0, 
413, 1071980220, -143.51182556152344, 29.61785888671875, -104.33455657958984, -4.859836101531982, 1.0925328731536865, 8.66215991973877, -0.2061433643102646, -2.8801159858703613, 0.47610464692115784, 0.675048828125, 0.401611328125, -0.738525390625, 0, 
414, 1071988553, -143.5132293701172, 29.618701934814453, -104.33934020996094, -4.864017486572266, 1.0965218544006348, 8.671332359313965, -0.12077111005783081, -2.868000030517578, 0.5968244671821594, 0.672119140625, 0.398193359375, -0.739501953125, 0, 
415, 1071996886, -143.49183654785156, 29.66010093688965, -104.33148956298828, -4.866887092590332, 1.0787640810012817, 8.656523704528809, -0.29932793974876404, -2.8067312240600586, 0.5068929195404053, 0.671630859375, 0.403564453125, -0.738037109375, 0, 
416, 1072005219, -143.49398803710938, 29.660322189331055, -104.3360595703125, -4.875800132751465, 1.095497488975525, 8.668745040893555, -0.22325366735458374, -2.8197174072265625, 0.5310471057891846, 0.676025390625, 0.399169921875, -0.737060546875, 0, 
417, 1072013552, -143.47076416015625, 29.702669143676758, -104.32738494873047, -4.877658367156982, 1.0833086967468262, 8.657472610473633, -0.15611876547336578, -2.8878002166748047, 0.48458293080329895, 0.674072265625, 0.399658203125, -0.737548828125, 0, 
418, 1072021885, -143.4730682373047, 29.70359230041504, -104.33222198486328, -4.8653950691223145, 1.0906009674072266, 8.654389381408691, -0.22561019659042358, -2.8716375827789307, 0.6031768321990967, 0.671142578125, 0.399658203125, -0.739990234375, 0, 
419, 1072030218, -143.45069885253906, 29.7474308013916, -104.32371520996094, -4.868268013000488, 1.0845263004302979, 8.702201843261719, -0.274840772151947, -2.9646172523498535, 0.5852980613708496, 0.675048828125, 0.396728515625, -0.737548828125, 0, 
420, 1072038551, -143.45242309570312, 29.749248504638672, -104.32623291015625, -4.8875885009765625, 1.087978482246399, 8.660280227661133, -0.29392334818840027, -3.1014227867126465, 0.47359439730644226, 0.674072265625, 0.401123046875, -0.738037109375, 0, 
421, 1072046884, -143.4301300048828, 29.79471206665039, -104.31607818603516, -4.874417781829834, 1.101901888847351, 8.6797513961792, -0.410391241312027, -3.1614112854003906, 0.5414208769798279, 0.672119140625, 0.401123046875, -0.738037109375, 0, 
422, 1072055217, -143.43356323242188, 29.796342849731445, -104.31916809082031, -4.858701229095459, 1.0974233150482178, 8.69472885131836, -0.46282365918159485, -3.04996395111084, 0.5080456137657166, 0.671630859375, 0.399658203125, -0.736572265625, 0, 
423, 1072063550, -143.41017150878906, 29.84129524230957, -104.30847930908203, -4.8633623123168945, 1.0882824659347534, 8.702073097229004, -0.3391324579715729, -3.082570791244507, 0.445060133934021, 0.672119140625, 0.400634765625, -0.740966796875, 0, 
424, 1072071883, -143.4134521484375, 29.843265533447266, -104.3111572265625, -4.869088172912598, 1.0919471979141235, 8.711798667907715, -0.46961143612861633, -3.1091582775115967, 0.49818408489227295, 0.673583984375, 0.401123046875, -0.738037109375, 0, 
425, 1072080216, -143.39157104492188, 29.88761329650879, -104.29943084716797, -4.8567705154418945, 1.0716948509216309, 8.682219505310059, -0.6098493337631226, -3.030574083328247, 0.28996598720550537, 0.676025390625, 0.401611328125, -0.737548828125, 0, 
426, 1072088549, -143.39544677734375, 29.888723373413086, -104.30219268798828, -4.85166597366333, 1.121281623840332, 8.65381145477295, -0.5359522700309753, -3.017023801803589, 0.4428829252719879, 0.670654296875, 0.400146484375, -0.739013671875, 0, 
427, 1072096882, -143.37191772460938, 29.933902740478516, -104.2923812866211, -4.878532409667969, 1.0665146112442017, 8.688499450683594, -0.3256337344646454, -2.932035446166992, 0.49318927526474, 0.675048828125, 0.400634765625, -0.736083984375, 0, 
428, 1072105215, -143.3740997314453, 29.934741973876953, -104.29603576660156, -4.843985557556152, 1.0879900455474854, 8.662921905517578, -0.2790926992893219, -2.936185359954834, 0.4986194968223572, 0.674072265625, 0.399658203125, -0.738525390625, 0, 
429, 1072113548, -143.34959411621094, 29.981815338134766, -104.28614044189453, -4.858315467834473, 1.0632458925247192, 8.652838706970215, -0.24044080078601837, -3.063155174255371, 0.5972599387168884, 0.676513671875, 0.397216796875, -0.739990234375, 0, 
430, 1072121881, -143.35166931152344, 29.983861923217773, -104.28966522216797, -4.857762813568115, 1.0875139236450195, 8.643280982971191, -0.27046069502830505, -3.0592362880706787, 0.5754878520965576, 0.672119140625, 0.399169921875, -0.740478515625, 0, 
431, 1072130214, -143.32736206054688, 30.031349182128906, -104.27886199951172, -4.881518363952637, 1.0933411121368408, 8.67519474029541, -0.3479437530040741, -3.098707675933838, 0.5297151803970337, 0.676025390625, 0.400146484375, -0.739013671875, 0, 
432, 1072138547, -143.32911682128906, 30.03466033935547, -104.28040313720703, -4.881089210510254, 1.082895040512085, 8.651652336120605, -0.35411685705184937, -3.305875778198242, 0.4999515116214752, 0.670654296875, 0.400634765625, -0.738525390625, 0, 
433, 1072146880, -143.3046112060547, 30.084165573120117, -104.26885986328125, -4.841231346130371, 1.1459182500839233, 8.645099639892578, -0.395381361246109, -3.2734479904174805, 0.5965171456336975, 0.671630859375, 0.398681640625, -0.741943359375, 0, 
434, 1072155213, -143.30723571777344, 30.08814811706543, -104.27110290527344, -4.885920524597168, 1.0646334886550903, 8.667841911315918, -0.4152579605579376, -3.3276987075805664, 0.6044062972068787, 0.676025390625, 0.400634765625, -0.739990234375, 0, 
435, 1072163546, -143.28225708007812, 30.138574600219727, -104.25914001464844, -4.883491039276123, 1.0705128908157349, 8.650259971618652, -0.39376765489578247, -3.3297483921051025, 0.6056358218193054, 0.675537109375, 0.400146484375, -0.737060546875, 0, 
436, 1072171879, -143.28488159179688, 30.143579483032227, -104.26087188720703, -4.857190132141113, 1.0970737934112549, 8.656503677368164, -0.445636510848999, -3.4562313556671143, 0.6355276107788086, 0.674560546875, 0.399169921875, -0.737548828125, 0, 
437, 1072180212, -143.26026916503906, 30.19466209411621, -104.24850463867188, -4.853064060211182, 1.1015523672103882, 8.704041481018066, -0.4887196719646454, -3.3563361167907715, 0.5996933579444885, 0.675537109375, 0.400634765625, -0.738037109375, 0, 
438, 1072188545, -143.26275634765625, 30.19735336303711, -104.25154113769531, -4.847343444824219, 1.0911704301834106, 8.666854858398438, -0.34907078742980957, -3.150883913040161, 0.5786640644073486, 0.673095703125, 0.399169921875, -0.740478515625, 0, 
439, 1072196878, -143.2368927001953, 30.246807098388672, -104.23812103271484, -4.8321733474731445, 1.0891779661178589, 8.650102615356445, -0.43393078446388245, -3.203213691711426, 0.3754662573337555, 0.673583984375, 0.399658203125, -0.739013671875, 0, 
440, 1072205211, -143.2411346435547, 30.24825096130371, -104.24130249023438, -4.851824760437012, 1.0982513427734375, 8.681681632995605, -0.5487593412399292, -3.023299217224121, 0.5024616718292236, 0.673095703125, 0.398681640625, -0.741455078125, 0, 
441, 1072213544, -143.217041015625, 30.296550750732422, -104.22919464111328, -4.867244243621826, 1.0660386085510254, 8.657033920288086, -0.5940965414047241, -2.95037579536438, 0.38087084889411926, 0.675537109375, 0.399658203125, -0.738525390625, 0, 
442, 1072221877, -143.2213592529297, 30.298084259033203, -104.23168182373047, -4.858956336975098, 1.115187168121338, 8.64651107788086, -0.6042142510414124, -3.0746560096740723, 0.44961947202682495, 0.675048828125, 0.398681640625, -0.739990234375, 0, 
443, 1072230210, -143.1953125, 30.34829330444336, -104.21932220458984, -4.872190952301025, 1.0653259754180908, 8.682605743408203, -0.40252771973609924, -3.086566686630249, 0.47582289576530457, 0.673095703125, 0.401611328125, -0.738525390625, 0, 
444, 1072238543, -143.1973419189453, 30.35102081298828, -104.22207641601562, -4.853947162628174, 1.0946005582809448, 8.658474922180176, -0.31034204363822937, -3.1747817993164062, 0.5563027262687683, 0.675537109375, 0.403564453125, -0.741943359375, 0, 
445, 1072246876, -143.17068481445312, 30.402515411376953, -104.20941925048828, -4.8649115562438965, 1.0748653411865234, 8.663241386413574, -0.3776818811893463, -3.1651253700256348, 0.5235421061515808, 0.674560546875, 0.399169921875, -0.740966796875, 0, 
446, 1072255209, -143.17340087890625, 30.406574249267578, -104.21277618408203, -4.87393045425415, 1.093488335609436, 8.672310829162598, -0.35480841994285583, -3.264944553375244, 0.7046348452568054, 0.671142578125, 0.400146484375, -0.735107421875, 0, 
447, 1072263542, -143.14772033691406, 30.460346221923828, -104.2001953125, -4.881642818450928, 1.1031122207641602, 8.669829368591309, -0.5202507376670837, -3.3196046352386475, 0.6743075251579285, 0.677001953125, 0.39990234375, -0.735595703125, 0, 
448, 1072271875, -143.15106201171875, 30.46476173400879, -104.20257568359375, -4.8801093101501465, 1.0753616094589233, 8.681400299072266, -0.4920238256454468, -3.3577699661254883, 0.6496410965919495, 0.675048828125, 0.399169921875, -0.738037109375, 0, 
449, 1072280208, -143.12400817871094, 30.520898818969727, -104.18756103515625, -4.881033897399902, 1.0826700925827026, 8.685020446777344, -0.5288570523262024, -3.633763074874878, 0.6236425638198853, 0.671630859375, 0.398681640625, -0.740966796875, 0, 
450, 1072288541, -143.1268310546875, 30.52696990966797, -104.18773651123047, -4.853111267089844, 1.0912754535675049, 8.662680625915527, -0.5643327236175537, -3.654228448867798, 0.5857334733009338, 0.671142578125, 0.401611328125, -0.739501953125, 0, 
451, 1072296874, -143.10079956054688, 30.582733154296875, -104.17259216308594, -4.860054969787598, 1.074617862701416, 8.674762725830078, -0.6877678036689758, -3.5416290760040283, 0.5682134032249451, 0.673095703125, 0.399169921875, -0.739013671875, 0, 
452, 1072305207, -143.10546875, 30.587459564208984, -104.17266845703125, -4.819698333740234, 1.1582146883010864, 8.7117280960083, -0.7904552221298218, -3.5323822498321533, 0.47974181175231934, 0.674560546875, 0.399658203125, -0.737060546875, 0, 
453, 1072313540, -143.07958984375, 30.641468048095703, -104.15723419189453, -4.85687780380249, 1.0999459028244019, 8.646512985229492, -0.7570287585258484, -3.32936429977417, 0.40138790011405945, 0.672119140625, 0.400634765625, -0.738037109375, 0, 
454, 1072321873, -143.08421325683594, 30.64345359802246, -104.15924072265625, -4.8233747482299805, 1.1091938018798828, 8.652737617492676, -0.6676093339920044, -3.146888017654419, 0.44080817699432373, 0.675537109375, 0.399658203125, -0.739501953125, 0, 
455, 1072330206, -143.05751037597656, 30.695751190185547, -104.14572143554688, -4.849809646606445, 1.0655381679534912, 8.667628288269043, -0.5706339478492737, -2.9850316047668457, 0.411582350730896, 0.672607421875, 0.400146484375, -0.740478515625, 0, 
456, 1072338539, -143.0609588623047, 30.697011947631836, -104.1494369506836, -4.863612174987793, 1.0259339809417725, 8.653620719909668, -0.41820359230041504, -2.9726855754852295, 0.5313799977302551, 0.672607421875, 0.402587890625, -0.735107421875, 0, 
457, 1072346872, -143.03262329101562, 30.750566482543945, -104.1371078491211, -4.854029178619385, 1.0771375894546509, 8.648587226867676, -0.32893800735473633, -2.9666662216186523, 0.581737756729126, 0.670654296875, 0.399658203125, -0.738037109375, 0, 
458, 1072355205, -143.03616333007812, 30.75189971923828, -104.14227294921875, -4.868640899658203, 1.0902788639068604, 8.668008804321289, -0.34161704778671265, -2.889925956726074, 0.6548663377761841, 0.676025390625, 0.401123046875, -0.741943359375, 0, 
459, 1072363538, -143.00897216796875, 30.80583381652832, -104.13018035888672, -4.8618483543396, 1.0711791515350342, 8.69697093963623, -0.48182934522628784, -2.9250175952911377, 0.6110659837722778, 0.673095703125, 0.402099609375, -0.740478515625, 0, 
460, 1072371871, -143.0126190185547, 30.808856964111328, -104.13311004638672, -4.868716716766357, 1.073716163635254, 8.675074577331543, -0.49143466353416443, -3.1900737285614014, 0.5939301252365112, 0.675537109375, 0.401123046875, -0.740966796875, 0, 
461, 1072380204, -142.9840545654297, 30.866886138916016, -104.11817932128906, -4.872519493103027, 1.0815880298614502, 8.656712532043457, -0.5164342522621155, -3.432692050933838, 0.6478736400604248, 0.672607421875, 0.401611328125, -0.739013671875, 0, 
462, 1072388537, -142.9871368408203, 30.872953414916992, -104.1196060180664, -4.869822978973389, 1.0649054050445557, 8.662788391113281, -0.5161011815071106, -3.5750811100006104, 0.6905725598335266, 0.672119140625, 0.401123046875, -0.739013671875, 0, 
463, 1072396870, -142.95672607421875, 30.934844970703125, -104.1020736694336, -4.880500316619873, 1.098354697227478, 8.664512634277344, -0.4882585406303406, -3.8987936973571777, 0.6951830983161926, 0.670654296875, 0.400634765625, -0.739013671875, 0, 
464, 1072405203, -142.95877075195312, 30.94245147705078, -104.1014633178711, -4.842236042022705, 1.1004973649978638, 8.67361831665039, -0.5151022672653198, -3.848231077194214, 0.6343236565589905, 0.673583984375, 0.400634765625, -0.738037109375, 0, 
465, 1072413536, -142.9281005859375, 31.003807067871094, -104.08346557617188, -4.848723411560059, 1.055138111114502, 8.66441535949707, -0.5195079445838928, -3.813267707824707, 0.6022546291351318, 0.673583984375, 0.397216796875, -0.740966796875, 0, 
466, 1072421869, -142.9299774169922, 31.012374877929688, -104.08325958251953, -4.78678560256958, 1.0658528804779053, 8.661067962646484, -0.4711225926876068, -3.9148027896881104, 0.7360890507698059, 0.673095703125, 0.403564453125, -0.735595703125, 0, 
467, 1072430202, -142.90020751953125, 31.071556091308594, -104.06714630126953, -4.7677321434021, 1.153255820274353, 8.657415390014648, -0.5367975234985352, -3.42541766166687, 0.577767550945282, 0.673583984375, 0.400634765625, -0.737548828125, 0, 
468, 1072438535, -142.90284729003906, 31.071216583251953, -104.07201385498047, -4.839073181152344, 1.0373495817184448, 8.63252067565918, -0.25027671456336975, -2.747126817703247, 0.5087115168571472, 0.672119140625, 0.404052734375, -0.739013671875, 0, 
469, 1072446868, -142.871337890625, 31.124711990356445, -104.06004333496094, -4.832240581512451, 1.044569969177246, 8.639691352844238, -0.10337905585765839, -2.5550198554992676, 0.49416258931159973, 0.672119140625, 0.401123046875, -0.737548828125, 0, 
470, 1072455201, -142.8734130859375, 31.12284278869629, -104.06614685058594, -4.83750057220459, 1.0906097888946533, 8.655908584594727, -0.10232886672019958, -2.525461196899414, 0.4993878901004791, 0.672607421875, 0.402099609375, -0.736572265625, 0, 
471, 1072463534, -142.84347534179688, 31.175491333007812, -104.055908203125, -4.842599391937256, 1.090833067893982, 8.670793533325195, -0.21039532124996185, -2.3033089637756348, 0.5481830835342407, 0.672607421875, 0.401123046875, -0.735595703125, 0, 
472, 1072471867, -142.8468017578125, 31.173988342285156, -104.0615234375, -4.895186424255371, 1.107612133026123, 8.673408508300781, -0.2847534418106079, -2.589778423309326, 0.4847622215747833, 0.670654296875, 0.400146484375, -0.739990234375, 0, 
473, 1072480200, -142.81581115722656, 31.229103088378906, -104.04789733886719, -4.886453628540039, 1.0446559190750122, 8.69284725189209, -0.32343095541000366, -2.6890337467193604, 0.43151023983955383, 0.673095703125, 0.403076171875, -0.738037109375, 0, 
474, 1072488533, -142.81886291503906, 31.229642868041992, -104.0535659790039, -4.872184753417969, 1.0812439918518066, 8.678555488586426, -0.24553804099559784, -2.7805020809173584, 0.6381146311759949, 0.673095703125, 0.399169921875, -0.739501953125, 0, 
475, 1072496866, -142.7870635986328, 31.28838348388672, -104.04035949707031, -4.863886833190918, 1.0649943351745605, 8.674281120300293, -0.2309635430574417, -2.9449713230133057, 0.7102954983711243, 0.674072265625, 0.399658203125, -0.738525390625, 0, 
476, 1072505199, -142.78890991210938, 31.291973114013672, -104.0441665649414, -4.8857293128967285, 1.0368520021438599, 8.675312995910645, -0.2177722156047821, -3.187640428543091, 0.7041481137275696, 0.671630859375, 0.402587890625, -0.739501953125, 0, 
477, 1072513532, -142.75540161132812, 31.354150772094727, -104.02851867675781, -4.8865766525268555, 1.0578032732009888, 8.66047191619873, -0.2068862020969391, -3.35823130607605, 0.7420060634613037, 0.674560546875, 0.399658203125, -0.737060546875, 0, 
