PacketCounter,SampleTimeFine,Euler_X,Euler_Y,Euler_Z,Acc_X,Acc_Y,Acc_Z,Gyr_X,Gyr_Y,Gyr_Z,Mag_X,Mag_Y,Mag_Z,Status,
0, 448951819, 6.725473880767822, 29.14514923095703, 23.180744171142578, 0, 0, 0, 0, 0, 0, 0.658447265625, 0.40576171875, -0.747314453125, 0, 
1, 448960152, 6.721262454986572, 29.120101928710938, 23.182218551635742, -4.864991188049316, 1.0366154909133911, 8.653375625610352, -0.591740071773529, -2.9671788215637207, 0.504895031452179, 0.659912109375, 0.40576171875, -0.745849609375, 0, 
2, 448968485, 6.716224193572998, 29.093597412109375, 23.18206787109375, -4.861306190490723, 1.02703857421875, 8.653665542602539, -0.5951979756355286, -3.1605916023254395, 0.35733139514923096, 0.658447265625, 0.40625, -0.746826171875, 0, 
3, 448976818, 6.732543468475342, 29.063613891601562, 23.234121322631836, -4.873711585998535, 0.9935111999511719, 8.661545753479004, -0.6378969550132751, -3.0884368419647217, 0.2786957025527954, 0.661376953125, 0.40869140625, -0.745849609375, 0, 
4, 448985151, 6.72744607925415, 29.037174224853516, 23.23407745361328, -4.877100467681885, 1.0241066217422485, 8.674821853637695, -0.6082612872123718, -3.152420997619629, 0.36716729402542114, 0.657958984375, 0.40478515625, -0.745361328125, 0, 
5, 448993484, 6.71386194229126, 29.027002334594727, 23.273740768432617, -4.840170860290527, 1.0254733562469482, 8.658714294433594, -0.5982460379600525, -3.132774829864502, 0.48519769310951233, 0.655517578125, 0.404296875, -0.745361328125, 0, 
6, 449001817, 6.706897735595703, 29.000621795654297, 23.273218154907227, -4.812394142150879, 1.0523295402526855, 8.659102439880371, -0.8051322102546692, -3.150678873062134, 0.3150934875011444, 0.660400390625, 0.404296875, -0.745361328125, 0, 
7, 449010150, 6.700857639312744, 28.98890495300293, 23.271427154541016, -4.857807159423828, 0.9894148707389832, 8.65429401397705, -0.6705294251441956, -3.0999627113342285, 0.38202351331710815, 0.657470703125, 0.4052734375, -0.748779296875, 0, 
8, 449018483, 6.694788455963135, 28.963653564453125, 23.27178192138672, -4.866558074951172, 1.0052467584609985, 8.671333312988281, -0.7491651177406311, -3.004883050918579, 0.3921155631542206, 0.659912109375, 0.408203125, -0.743896484375, 0, 
9, 449026816, 6.691427230834961, 28.944299697875977, 23.273273468017578, -4.838952541351318, 1.0266573429107666, 8.669756889343262, -0.6278305053710938, -3.132774829864502, 0.4195740222930908, 0.658935546875, 0.40673828125, -0.747802734375, 0, 
10, 449035149, 6.6857123374938965, 28.91757583618164, 23.27410125732422, -4.840409278869629, 1.016935110092163, 8.6885404586792, -0.7342833280563354, -3.1753714084625244, 0.46083852648735046, 0.659423828125, 0.4072265625, -0.748779296875, 0, 
11, 449043482, 6.681268692016602, 28.90056610107422, 23.29433250427246, -4.858342170715332, 1.001809000968933, 8.6836576461792, -0.612820565700531, -3.2049553394317627, 0.5162164568901062, 0.659912109375, 0.4091796875, -0.746337890625, 0, 
12, 449051815, 6.675718784332275, 28.872238159179688, 23.29417610168457, -4.861791133880615, 1.0160337686538696, 8.662230491638184, -0.6575942635536194, -3.3786203861236572, 0.3785399794578552, 0.661376953125, 0.40771484375, -0.743408203125, 0, 
13, 449060148, 6.6668901443481445, 28.853355407714844, 23.319677352905273, -4.8555755615234375, 1.0209414958953857, 8.677512168884277, -0.7197600603103638, -3.393399715423584, 0.41478416323661804, 0.658447265625, 0.4052734375, -0.746826171875, 0, 
14, 449068481, 6.661640167236328, 28.82518196105957, 23.32033920288086, -4.856835842132568, 1.0258803367614746, 8.65993595123291, -0.6687621474266052, -3.3508288860321045, 0.46053117513656616, 0.661865234375, 0.4052734375, -0.746337890625, 0, 
15, 449076814, 6.656932830810547, 28.810104370117188, 23.351673126220703, -4.832358360290527, 1.0107735395431519, 8.66770076751709, -0.518022358417511, -3.385331153869629, 0.450080543756485, 0.659912109375, 0.4033203125, -0.744873046875, 0, 
16, 449085147, 6.651432514190674, 28.78120231628418, 23.352100372314453, -4.84644889831543, 0.9993982911109924, 8.666619300842285, -0.685257613658905, -3.440990686416626, 0.4474678635597229, 0.659912109375, 0.4052734375, -0.747314453125, 0, 
17, 449093480, 6.6473002433776855, 28.765947341918945, 23.405792236328125, -4.849246025085449, 1.0135208368301392, 8.682032585144043, -0.6326460838317871, -3.4754676818847656, 0.48816895484924316, 0.659423828125, 0.40625, -0.746826171875, 0, 
18, 449101813, 6.642825603485107, 28.736791610717773, 23.407114028930664, -4.863173961639404, 1.0168036222457886, 8.675605773925781, -0.6126925349235535, -3.4591257572174072, 0.5438286066055298, 0.657958984375, 0.40478515625, -0.747802734375, 0, 
19, 449110146, 6.638086318969727, 28.720922470092773, 23.439485549926758, -4.8258843421936035, 1.0255473852157593, 8.670473098754883, -0.5607723593711853, -3.5984668731689453, 0.45166856050491333, 0.658935546875, 0.40673828125, -0.746826171875, 0, 
20, 449118479, 6.633607864379883, 28.691057205200195, 23.4404239654541, -4.817241668701172, 1.0452297925949097, 8.7042236328125, -0.5899471044540405, -3.5476744174957275, 0.5125024318695068, 0.657470703125, 0.40576171875, -0.747314453125, 0, 
21, 449126812, 6.628840923309326, 28.6761531829834, 23.467615127563477, -4.8424835205078125, 1.0082529783248901, 8.664942741394043, -0.6680192947387695, -3.509688377380371, 0.32277780771255493, 0.657470703125, 0.40185546875, -0.749755859375, 0, 
22, 449135145, 6.624174118041992, 28.647911071777344, 23.467525482177734, -4.8360772132873535, 1.0186880826950073, 8.665739059448242, -0.5544713735580444, -3.3672473430633545, 0.3813319206237793, 0.657958984375, 0.40673828125, -0.746826171875, 0, 
23, 449143478, 6.62209415435791, 28.633087158203125, 23.495014190673828, -4.844634056091309, 1.0054761171340942, 8.666489601135254, -0.5962993502616882, -3.3116133213043213, 0.5062268972396851, 0.658935546875, 0.404296875, -0.747314453125, 0, 
24, 449151811, 6.618852138519287, 28.604684829711914, 23.496362686157227, -4.847538948059082, 0.9996519088745117, 8.683609962463379, -0.4666658043861389, -3.3708078861236572, 0.5348637104034424, 0.659423828125, 0.4033203125, -0.746826171875, 0, 
25, 449160144, 6.61718225479126, 28.589519500732422, 23.53010368347168, -4.859464168548584, 1.0323578119277954, 8.702803611755371, -0.545224666595459, -3.429771900177002, 0.5615281462669373, 0.660888671875, 0.40576171875, -0.747802734375, 0, 
26, 449168477, 6.613297462463379, 28.558900833129883, 23.5313720703125, -4.840950965881348, 1.017496109008789, 8.673885345458984, -0.5388978719711304, -3.636350393295288, 0.5563283562660217, 0.656982421875, 0.40576171875, -0.746337890625, 0, 
27, 449176810, 6.611523151397705, 28.543428421020508, 23.568603515625, -4.833885669708252, 1.046390414237976, 8.707743644714355, -0.5112857818603516, -3.5346622467041016, 0.5021286606788635, 0.658447265625, 0.40576171875, -0.750244140625, 0, 
28, 449185143, 6.608443737030029, 28.513338088989258, 23.570114135742188, -4.868373394012451, 1.0133720636367798, 8.675983428955078, -0.4550880789756775, -3.5692410469055176, 0.5738484263420105, 0.659912109375, 0.40478515625, -0.742919921875, 0, 
29, 449193476, 6.6080803871154785, 28.496850967407227, 23.5919246673584, -4.86220121383667, 1.0242118835449219, 8.662089347839355, -0.47483667731285095, -3.6052803993225098, 0.5657544136047363, 0.656494140625, 0.40771484375, -0.746826171875, 0, 
30, 449201809, 6.604174613952637, 28.466171264648438, 23.5931453704834, -4.849629878997803, 1.02567720413208, 8.704862594604492, -0.5389491319656372, -3.6445467472076416, 0.5514360666275024, 0.656494140625, 0.40283203125, -0.748779296875, 0, 
31, 449210142, 6.604215621948242, 28.4499454498291, 23.61422348022461, -4.851659774780273, 1.0126807689666748, 8.691609382629395, -0.44028306007385254, -3.7447497844696045, 0.6029719114303589, 0.659912109375, 0.4052734375, -0.748779296875, 0, 
32, 449218475, 6.600709438323975, 28.418319702148438, 23.615947723388672, -4.843012809753418, 1.0271135568618774, 8.703446388244629, -0.518867552280426, -3.7496163845062256, 0.616701066493988, 0.657958984375, 0.40576171875, -0.747314453125, 0, 
33, 449226808, 6.599570274353027, 28.401142120361328, 23.65168571472168, -4.8457183837890625, 1.0690386295318604, 8.691736221313477, -0.5439695119857788, -3.867544174194336, 0.5724908709526062, 0.656494140625, 0.40673828125, -0.748291015625, 0, 
34, 449235141, 6.59617280960083, 28.36910057067871, 23.65266990661621, -4.842708587646484, 1.0102109909057617, 8.69258975982666, -0.4637969434261322, -3.80696702003479, 0.5456216335296631, 0.655029296875, 0.40576171875, -0.746337890625, 0, 
35, 449243474, 6.596019268035889, 28.351961135864258, 23.672462463378906, -4.829326152801514, 1.0283702611923218, 8.658596992492676, -0.5004509091377258, -3.855992317199707, 0.48688817024230957, 0.659912109375, 0.40625, -0.748291015625, 0, 
36, 449251807, 6.592166423797607, 28.31926155090332, 23.673511505126953, -4.860506057739258, 1.006111741065979, 8.693098068237305, -0.5228121876716614, -3.887242078781128, 0.5591459274291992, 0.655517578125, 0.40478515625, -0.748779296875, 0, 
37, 449260140, 6.592537879943848, 28.301435470581055, 23.711862564086914, -4.8155083656311035, 1.0058459043502808, 8.682297706604004, -0.4892062246799469, -3.930093765258789, 0.6440057754516602, 0.659423828125, 0.40478515625, -0.751220703125, 0, 
38, 449268473, 6.589788913726807, 28.26991081237793, 23.714126586914062, -4.829898834228516, 1.0349664688110352, 8.709487915039062, -0.45921197533607483, -3.7318148612976074, 0.6702861189842224, 0.656982421875, 0.404296875, -0.747802734375, 0, 
39, 449276806, 6.5897440910339355, 28.252798080444336, 23.741897583007812, -4.831089973449707, 1.0074490308761597, 8.693872451782227, -0.4325219392776489, -3.8595528602600098, 0.5730800628662109, 0.659423828125, 0.40478515625, -0.747802734375, 0, 
40, 449285139, 6.586211681365967, 28.221881866455078, 23.743703842163086, -4.812410354614258, 1.0384202003479004, 8.68682861328125, -0.5268591642379761, -3.6644234657287598, 0.6153947710990906, 0.654541015625, 0.4072265625, -0.746826171875, 0, 
41, 449293472, 6.5859856605529785, 28.20578956604004, 23.77987289428711, -4.830583572387695, 1.0107738971710205, 8.692238807678223, -0.4407440721988678, -3.708709955215454, 0.5487977266311646, 0.656005859375, 0.40625, -0.745849609375, 0, 
42, 449301805, 6.584003925323486, 28.176443099975586, 23.781185150146484, -4.81380558013916, 1.039973497390747, 8.690613746643066, -0.3110080659389496, -3.484304666519165, 0.5396022796630859, 0.656494140625, 0.404296875, -0.747802734375, 0, 
43, 449310138, 6.584932804107666, 28.162416458129883, 23.81009864807129, -4.8014235496521, 0.9961591958999634, 8.643309593200684, -0.3190765380859375, -3.433485984802246, 0.5430602431297302, 0.656494140625, 0.4072265625, -0.750732421875, 0, 
44, 449318471, 6.582561492919922, 28.134260177612305, 23.811885833740234, -4.813065528869629, 1.01962411403656, 8.737821578979492, -0.3841366767883301, -3.3383798599243164, 0.5735155344009399, 0.657470703125, 0.40576171875, -0.748779296875, 0, 
45, 449326804, 6.583122253417969, 28.120508193969727, 23.836528778076172, -4.844913482666016, 0.9923965930938721, 8.687836647033691, -0.3839830160140991, -3.377749443054199, 0.5931104421615601, 0.655029296875, 0.40478515625, -0.750244140625, 0, 
46, 449335137, 6.580716609954834, 28.092330932617188, 23.8389892578125, -4.842072010040283, 1.0142676830291748, 8.699562072753906, -0.42593914270401, -3.331899881362915, 0.6429045796394348, 0.657470703125, 0.40869140625, -0.746337890625, 0, 
47, 449343470, 6.581801891326904, 28.07755470275879, 23.863712310791016, -4.8561201095581055, 1.0051639080047607, 8.704182624816895, -0.2852913737297058, -3.4813077449798584, 0.6359374523162842, 0.654052734375, 0.4052734375, -0.745361328125, 0, 
48, 449351803, 6.579730033874512, 28.047283172607422, 23.865907669067383, -4.835804462432861, 0.9960771203041077, 8.684225082397461, -0.370637983083725, -3.586146354675293, 0.6450048089027405, 0.656494140625, 0.40771484375, -0.746337890625, 0, 
49, 449360136, 6.579127311706543, 28.03002166748047, 23.89900016784668, -4.844075679779053, 1.014522910118103, 8.651041984558105, -0.47201910614967346, -3.809015989303589, 0.6950294375419617, 0.656982421875, 0.40673828125, -0.749267578125, 0, 
50, 449368469, 6.5769267082214355, 27.997617721557617, 23.90081214904785, -4.820688247680664, 1.010709285736084, 8.66060733795166, -0.3663603961467743, -3.843543767929077, 0.6345798373222351, 0.655029296875, 0.40576171875, -0.745849609375, 0, 
51, 449376802, 6.577591419219971, 27.980510711669922, 23.92595863342285, -4.813408374786377, 1.0198338031768799, 8.681642532348633, -0.33808231353759766, -3.824230670928955, 0.7834241390228271, 0.656982421875, 0.4052734375, -0.745849609375, 0, 
52, 449385135, 6.576168537139893, 27.948503494262695, 23.92896270751953, -4.788455486297607, 1.0528753995895386, 8.672978401184082, -0.33680152893066406, -3.7848103046417236, 0.7506890892982483, 0.655517578125, 0.40771484375, -0.746826171875, 0, 
53, 449393468, 6.575840950012207, 27.932388305664062, 23.976970672607422, -4.813354015350342, 1.042102575302124, 8.658195495605469, -0.365028440952301, -3.7254366874694824, 0.5987455248832703, 0.652587890625, 0.40869140625, -0.745361328125, 0, 
54, 449401801, 6.574828624725342, 27.90412712097168, 23.97979164123535, -4.78545618057251, 1.0182101726531982, 8.665143013000488, -0.27778634428977966, -3.3389179706573486, 0.6819405555725098, 0.656982421875, 0.40478515625, -0.749755859375, 0, 
55, 449410134, 6.575677871704102, 27.89314079284668, 24.0002384185791, -4.804500102996826, 1.0055369138717651, 8.679228782653809, -0.25706443190574646, -3.1057512760162354, 0.4936247169971466, 0.656005859375, 0.404296875, -0.744873046875, 0, 
56, 449418467, 6.574119567871094, 27.867759704589844, 24.002023696899414, -4.815199375152588, 1.016621470451355, 8.676462173461914, -0.28408750891685486, -3.0090582370758057, 0.5335829854011536, 0.656494140625, 0.40478515625, -0.748291015625, 0, 
57, 449426800, 6.574703216552734, 27.856815338134766, 24.0378475189209, -4.824087142944336, 1.0496504306793213, 8.677275657653809, -0.28941527009010315, -3.0794968605041504, 0.5187779068946838, 0.655029296875, 0.40380859375, -0.747802734375, 0, 
58, 449435133, 6.572404861450195, 27.83135986328125, 24.040340423583984, -4.843310832977295, 1.0331224203109741, 8.702099800109863, -0.4125428795814514, -3.0105948448181152, 0.6060456037521362, 0.658447265625, 0.40625, -0.747802734375, 0, 
59, 449443466, 6.571935176849365, 27.81964111328125, 24.068683624267578, -4.820702075958252, 1.045661211013794, 8.718369483947754, -0.43841323256492615, -3.179264545440674, 0.5470304489135742, 0.656982421875, 0.40576171875, -0.748291015625, 0, 
60, 449451799, 6.567228317260742, 27.791549682617188, 24.06909942626953, -4.8191657066345215, 1.0234802961349487, 8.70410442352295, -0.5850548148155212, -3.3507778644561768, 0.4226733148097992, 0.656982421875, 0.40576171875, -0.746337890625, 0, 
61, 449460132, 6.565669536590576, 27.778263092041016, 24.10048484802246, -4.840451717376709, 1.01036536693573, 8.710927963256836, -0.5732722282409668, -3.3708078861236572, 0.5486698150634766, 0.658447265625, 0.40771484375, -0.749755859375, 0, 
62, 449468465, 6.562180519104004, 27.748991012573242, 24.101194381713867, -4.836455345153809, 1.0284610986709595, 8.700637817382812, -0.45519059896469116, -3.488966464996338, 0.4678056240081787, 0.653076171875, 0.4052734375, -0.746337890625, 0, 
63, 449476798, 6.560227394104004, 27.734668731689453, 24.126487731933594, -4.83085298538208, 1.0099239349365234, 8.6846923828125, -0.5345947742462158, -3.5132744312286377, 0.42805230617523193, 0.654541015625, 0.40478515625, -0.748291015625, 0, 
64, 449485131, 6.555635929107666, 27.706369400024414, 24.126678466796875, -4.8071794509887695, 1.034957766532898, 8.706941604614258, -0.5576475262641907, -3.380362033843994, 0.40087562799453735, 0.656494140625, 0.40478515625, -0.748291015625, 0, 
65, 449493464, 6.55402135848999, 27.693273544311523, 24.148696899414062, -4.81795072555542, 1.0017433166503906, 8.700570106506348, -0.4949182868003845, -3.378953218460083, 0.42774495482444763, 0.656494140625, 0.4052734375, -0.747802734375, 0, 
66, 449501797, 6.550433158874512, 27.665800094604492, 24.149438858032227, -4.80947732925415, 1.0419288873672485, 8.655462265014648, -0.4681001901626587, -3.2757792472839355, 0.44557246565818787, 0.655517578125, 0.40478515625, -0.747314453125, 0, 
67, 449510130, 6.549463748931885, 27.65403938293457, 24.1777400970459, -4.825692176818848, 1.015899896621704, 8.706062316894531, -0.46979066729545593, -3.197322368621826, 0.5261291861534119, 0.652587890625, 0.4072265625, -0.747802734375, 0, 
68, 449518463, 6.547356605529785, 27.6278076171875, 24.179649353027344, -4.806982517242432, 1.0047091245651245, 8.70600700378418, -0.3560122847557068, -3.1140763759613037, 0.5505908131599426, 0.656005859375, 0.40283203125, -0.747802734375, 0, 
69, 449526796, 6.546853065490723, 27.616275787353516, 24.19939422607422, -4.811439037322998, 1.026515007019043, 8.725126266479492, -0.4015543758869171, -3.1793670654296875, 0.4889373481273651, 0.656982421875, 0.4072265625, -0.749267578125, 0, 
70, 449535129, 6.544657230377197, 27.588245391845703, 24.20090103149414, -4.81182336807251, 1.0228767395019531, 8.707335472106934, -0.34218060970306396, -3.3354344367980957, 0.5317131280899048, 0.653564453125, 0.40625, -0.750244140625, 0, 
71, 449543462, 6.543432235717773, 27.575193405151367, 24.22859764099121, -4.820336818695068, 1.026449203491211, 8.710205078125, -0.497735857963562, -3.3465256690979004, 0.544340968132019, 0.656982421875, 0.40771484375, -0.748291015625, 0, 
72, 449551795, 6.5406670570373535, 27.547277450561523, 24.230072021484375, -4.811428070068359, 1.020859956741333, 8.688612937927246, -0.40944358706474304, -3.3221664428710938, 0.5280759334564209, 0.654541015625, 0.4072265625, -0.748291015625, 0, 
73, 449560128, 6.540114879608154, 27.5347957611084, 24.255624771118164, -4.805807113647461, 1.0391050577163696, 8.67457103729248, -0.4283468425273895, -3.2714242935180664, 0.5613487362861633, 0.653564453125, 0.4072265625, -0.750732421875, 0, 
74, 449568461, 6.537574768066406, 27.50762367248535, 24.257551193237305, -4.78788948059082, 1.042435884475708, 8.6984281539917, -0.40524280071258545, -3.228853464126587, 0.5626551508903503, 0.658447265625, 0.40673828125, -0.747314453125, 0, 
75, 449576794, 6.536942958831787, 27.496185302734375, 24.273569107055664, -4.803740978240967, 1.0020633935928345, 8.708649635314941, -0.3767085373401642, -3.166226625442505, 0.4196251928806305, 0.657958984375, 0.40771484375, -0.750732421875, 0, 
76, 449585127, 6.535401821136475, 27.47113800048828, 24.27457618713379, -4.815044403076172, 1.0095351934432983, 8.687810897827148, -0.23644497990608215, -2.9879772663116455, 0.43706849217414856, 0.656005859375, 0.4052734375, -0.750244140625, 0, 
77, 449593460, 6.535609245300293, 27.461414337158203, 24.300039291381836, -4.802636623382568, 1.007694959640503, 8.674939155578613, -0.32217586040496826, -2.9403350353240967, 0.48973140120506287, 0.652587890625, 0.4052734375, -0.747802734375, 0, 
78, 449601793, 6.53370475769043, 27.43619728088379, 24.30109405517578, -4.8126139640808105, 1.0494948625564575, 8.740119934082031, -0.28062957525253296, -3.009211540222168, 0.44447100162506104, 0.652587890625, 0.4052734375, -0.746826171875, 0, 
79, 449610126, 6.53497314453125, 27.426307678222656, 24.324682235717773, -4.823323726654053, 0.9949100017547607, 8.70588207244873, -0.22394528985023499, -2.958982229232788, 0.5681109428405762, 0.655517578125, 0.40478515625, -0.748779296875, 0, 
80, 449618459, 6.533843517303467, 27.400999069213867, 24.326711654663086, -4.811954975128174, 1.0132384300231934, 8.711442947387695, -0.24251557886600494, -3.0096726417541504, 0.5470048189163208, 0.656982421875, 0.40576171875, -0.748779296875, 0, 
81, 449626792, 6.534509181976318, 27.390623092651367, 24.354999542236328, -4.820808410644531, 1.0191210508346558, 8.670157432556152, -0.2691287696361542, -3.021045684814453, 0.5310983657836914, 0.657958984375, 0.40771484375, -0.748291015625, 0, 
82, 449635125, 6.532797336578369, 27.363801956176758, 24.356351852416992, -4.821426868438721, 1.0263336896896362, 8.698139190673828, -0.27371373772621155, -3.199653387069702, 0.4962374269962311, 0.654541015625, 0.40478515625, -0.746826171875, 0, 
83, 449643458, 6.532774925231934, 27.353036880493164, 24.3857364654541, -4.808399200439453, 1.0262850522994995, 8.692741394042969, -0.38088366389274597, -3.070096492767334, 0.6038427948951721, 0.656494140625, 0.40771484375, -0.748779296875, 0, 
84, 449651791, 6.530950546264648, 27.326391220092773, 24.387876510620117, -4.818329334259033, 1.0356459617614746, 8.669900894165039, -0.33096155524253845, -3.170222759246826, 0.576256275177002, 0.655029296875, 0.40625, -0.749267578125, 0, 
85, 449660124, 6.530400276184082, 27.315105438232422, 24.413175582885742, -4.795593738555908, 1.0244085788726807, 8.68048095703125, -0.35683193802833557, -3.1582608222961426, 0.43909206986427307, 0.654541015625, 0.40625, -0.748291015625, 0, 
86, 449668457, 6.528743743896484, 27.29052734375, 24.415163040161133, -4.796813011169434, 1.022520661354065, 8.684866905212402, -0.30163320899009705, -2.927527666091919, 0.5304580330848694, 0.656005859375, 0.40478515625, -0.750732421875, 0, 
87, 449676790, 6.530129909515381, 27.281396865844727, 24.44050407409668, -4.795119285583496, 1.0024973154067993, 8.683280944824219, -0.19948364794254303, -2.8951258659362793, 0.5463132262229919, 0.654052734375, 0.40625, -0.747802734375, 0, 
88, 449685123, 6.529695510864258, 27.25663185119629, 24.442659378051758, -4.814305782318115, 1.0265158414840698, 8.702960014343262, -0.16352127492427826, -2.947788715362549, 0.5503090023994446, 0.655029296875, 0.40576171875, -0.747802734375, 0, 
89, 449693456, 6.531885147094727, 27.246532440185547, 24.46872329711914, -4.827136516571045, 1.032368779182434, 8.702125549316406, -0.12930065393447876, -3.005523204803467, 0.623155951499939, 0.654052734375, 0.4033203125, -0.749755859375, 0, 
90, 449701789, 6.530637264251709, 27.220022201538086, 24.47106170654297, -4.824305057525635, 1.0143271684646606, 8.68580436706543, -0.27151086926460266, -3.15580153465271, 0.5931103825569153, 0.654541015625, 0.4072265625, -0.748291015625, 0, 
91, 449710122, 6.531012058258057, 27.208744049072266, 24.496288299560547, -4.82593297958374, 1.0327675342559814, 8.681097984313965, -0.3271450102329254, -3.1589269638061523, 0.5992834568023682, 0.656005859375, 0.40771484375, -0.749267578125, 0, 
92, 449718455, 6.529392719268799, 27.182636260986328, 24.497690200805664, -4.798697471618652, 1.021702766418457, 8.669424057006836, -0.26239219307899475, -3.1210947036743164, 0.4864015281200409, 0.657470703125, 0.40771484375, -0.747802734375, 0, 
93, 449726788, 6.529716491699219, 27.171937942504883, 24.521310806274414, -4.802885055541992, 1.0454518795013428, 8.688685417175293, -0.2552202343940735, -3.122631549835205, 0.44196078181266785, 0.655517578125, 0.4072265625, -0.747314453125, 0, 
94, 449735121, 6.527617454528809, 27.146804809570312, 24.522159576416016, -4.811289310455322, 1.017959713935852, 8.702353477478027, -0.2915155589580536, -3.0142061710357666, 0.41527074575424194, 0.651611328125, 0.40234375, -0.748779296875, 0, 
95, 449743454, 6.527939319610596, 27.138948440551758, 24.54908561706543, -4.803244113922119, 0.9977420568466187, 8.701692581176758, -0.2974069118499756, -2.7815520763397217, 0.47684741020202637, 0.656982421875, 0.40380859375, -0.748291015625, 0, 
96, 449751787, 6.527289390563965, 27.115428924560547, 24.551292419433594, -4.809601306915283, 0.9958645105361938, 8.726114273071289, -0.18954534828662872, -2.8084216117858887, 0.5348637104034424, 0.656005859375, 0.404296875, -0.750244140625, 0, 
97, 449760120, 6.527742385864258, 27.107301712036133, 24.579347610473633, -4.803691387176514, 1.0146790742874146, 8.658469200134277, -0.30416902899742126, -2.8113162517547607, 0.54088294506073, 0.656005859375, 0.40283203125, -0.747314453125, 0, 
98, 449768453, 6.527496814727783, 27.083946228027344, 24.582080841064453, -4.821588039398193, 1.0274535417556763, 8.70560359954834, -0.1684904545545578, -2.784088134765625, 0.5885511040687561, 0.655517578125, 0.4052734375, -0.749267578125, 0, 
99, 449776786, 6.528658390045166, 27.074642181396484, 24.61240577697754, -4.8130669593811035, 1.0459306240081787, 8.708134651184082, -0.20924268662929535, -2.959315061569214, 0.5577883720397949, 0.656005859375, 0.40380859375, -0.748779296875, 0, 
100, 449785119, 6.527775287628174, 27.050291061401367, 24.613683700561523, -4.8140034675598145, 1.0354688167572021, 8.651758193969727, -0.1659802496433258, -2.9230709075927734, 0.4453418552875519, 0.656494140625, 0.4033203125, -0.748291015625, 0, 
101, 449793452, 6.528763771057129, 27.04216194152832, 24.6401424407959, -4.807128429412842, 1.037017583847046, 8.702495574951172, -0.20089244842529297, -2.8344454765319824, 0.47764143347740173, 0.653564453125, 0.404296875, -0.748291015625, 0, 
102, 449801785, 6.526875972747803, 27.017770767211914, 24.641756057739258, -4.818713188171387, 1.0206657648086548, 8.709521293640137, -0.30447641015052795, -2.9259140491485596, 0.4815860688686371, 0.656494140625, 0.4072265625, -0.747802734375, 0, 
103, 449810118, 6.526640892028809, 27.009191513061523, 24.666959762573242, -4.8097147941589355, 1.0224093198776245, 8.705869674682617, -0.3785015642642975, -2.894664764404297, 0.5327633023262024, 0.657470703125, 0.40380859375, -0.748779296875, 0, 
104, 449818451, 6.524608612060547, 26.98573112487793, 24.669021606445312, -4.830709457397461, 1.0353341102600098, 8.710428237915039, -0.34579217433929443, -2.8111369609832764, 0.5158066749572754, 0.656005859375, 0.40625, -0.748779296875, 0, 
105, 449826784, 6.524303436279297, 26.977062225341797, 24.694385528564453, -4.799474716186523, 1.027788758277893, 8.69335651397705, -0.33669912815093994, -2.9256834983825684, 0.4413973093032837, 0.657470703125, 0.40478515625, -0.746826171875, 0, 
106, 449835117, 6.522085189819336, 26.953201293945312, 24.695940017700195, -4.823824882507324, 1.0351061820983887, 8.7171630859375, -0.3390812873840332, -2.8667454719543457, 0.46626874804496765, 0.654541015625, 0.40283203125, -0.747802734375, 0, 
107, 449843450, 6.521359920501709, 26.94369888305664, 24.72443199157715, -4.801389217376709, 1.0459654331207275, 8.692567825317383, -0.3814215660095215, -3.03544020652771, 0.4422169625759125, 0.654541015625, 0.4072265625, -0.747802734375, 0, 
108, 449851783, 6.518498420715332, 26.919818878173828, 24.726030349731445, -4.8054022789001465, 1.0184258222579956, 8.68586540222168, -0.4194331467151642, -2.873046398162842, 0.4683435261249542, 0.657470703125, 0.40673828125, -0.748291015625, 0, 
109, 449860116, 6.518001079559326, 26.910388946533203, 24.74950408935547, -4.833196640014648, 1.0146594047546387, 8.718862533569336, -0.3679228723049164, -3.032315969467163, 0.4565865695476532, 0.656982421875, 0.408203125, -0.745849609375, 0, 
110, 449868449, 6.515660762786865, 26.886180877685547, 24.75090789794922, -4.814687252044678, 1.0384881496429443, 8.680152893066406, -0.3446139097213745, -2.91597580909729, 0.45148932933807373, 0.655517578125, 0.40673828125, -0.748291015625, 0, 
111, 449876782, 6.514242649078369, 26.876880645751953, 24.777673721313477, -4.811609745025635, 1.0218675136566162, 8.6747465133667, -0.5196616053581238, -3.0238118171691895, 0.5443665385246277, 0.654052734375, 0.40625, -0.746337890625, 0, 
112, 449885115, 6.51092004776001, 26.85175895690918, 24.77845001220703, -4.812129020690918, 1.0489943027496338, 8.6920747756958, -0.4286286234855652, -3.035184860229492, 0.3959064185619354, 0.656982421875, 0.40673828125, -0.752685546875, 0, 
113, 449893448, 6.510315895080566, 26.841697692871094, 24.802806854248047, -4.787376880645752, 1.0375216007232666, 8.709480285644531, -0.3888497054576874, -3.1340808868408203, 0.48791274428367615, 0.656005859375, 0.4052734375, -0.748779296875, 0, 
114, 449901781, 6.507480144500732, 26.81688690185547, 24.803815841674805, -4.8083062171936035, 1.0267177820205688, 8.691092491149902, -0.38203632831573486, -2.999401330947876, 0.4160904288291931, 0.654052734375, 0.40283203125, -0.747802734375, 0, 
115, 449910114, 6.506943702697754, 26.80951690673828, 24.82876205444336, -4.797002792358398, 1.0522457361221313, 8.677681922912598, -0.3790394961833954, -2.8223817348480225, 0.43632572889328003, 0.656005859375, 0.404296875, -0.748779296875, 0, 
116, 449918447, 6.504602432250977, 26.785865783691406, 24.829439163208008, -4.797110557556152, 1.0299009084701538, 8.714590072631836, -0.3042202889919281, -2.868358850479126, 0.3635556399822235, 0.653076171875, 0.404296875, -0.749755859375, 0, 
117, 449926780, 6.5033464431762695, 26.778553009033203, 24.855531692504883, -4.805965900421143, 1.0242894887924194, 8.722810745239258, -0.47242891788482666, -2.828554153442383, 0.44060322642326355, 0.656005859375, 0.40478515625, -0.745849609375, 0, 
118, 449935113, 6.499847412109375, 26.754825592041016, 24.85675811767578, -4.815727233886719, 1.0205914974212646, 8.695150375366211, -0.4732230007648468, -2.8727898597717285, 0.420777827501297, 0.657958984375, 0.40576171875, -0.749267578125, 0, 
119, 449943446, 6.499079704284668, 26.74695587158203, 24.882463455200195, -4.8304123878479, 1.033352017402649, 8.694713592529297, -0.4072663486003876, -2.9010682106018066, 0.4368380010128021, 0.655517578125, 0.40625, -0.746337890625, 0, 
120, 449951779, 6.49543571472168, 26.72237777709961, 24.88379669189453, -4.807525157928467, 1.0217989683151245, 8.713911056518555, -0.4943803548812866, -2.977782964706421, 0.4423450529575348, 0.655517578125, 0.404296875, -0.746826171875, 0, 
121, 449960112, 6.492690563201904, 26.713571548461914, 24.90825843811035, -4.815780162811279, 1.0326343774795532, 8.696662902832031, -0.587923526763916, -3.0442261695861816, 0.3381975293159485, 0.655517578125, 0.40625, -0.747802734375, 0, 
122, 449968445, 6.488996505737305, 26.688512802124023, 24.90936851501465, -4.815983295440674, 1.0396568775177002, 8.690009117126465, -0.4886940121650696, -3.040076971054077, 0.42223790287971497, 0.653564453125, 0.404296875, -0.748779296875, 0, 
123, 449976778, 6.488367557525635, 26.679859161376953, 24.934894561767578, -4.812865257263184, 1.046861171722412, 8.677643775939941, -0.44207608699798584, -3.0145907402038574, 0.5521532893180847, 0.658447265625, 0.40478515625, -0.751220703125, 0, 
124, 449985111, 6.484336853027344, 26.653635025024414, 24.93549156188965, -4.8041768074035645, 1.0319677591323853, 8.672004699707031, -0.5004509687423706, -3.1891515254974365, 0.3809989392757416, 0.657470703125, 0.40478515625, -0.747802734375, 0, 
125, 449993444, 6.482454776763916, 26.64479637145996, 24.961572647094727, -4.816763401031494, 1.0205320119857788, 8.702796936035156, -0.534594714641571, -3.069481611251831, 0.4284365475177765, 0.656494140625, 0.4052734375, -0.746826171875, 0, 
126, 450001777, 6.4783220291137695, 26.618999481201172, 24.963163375854492, -4.821800708770752, 1.0589594841003418, 8.672828674316406, -0.5660489201545715, -3.1285994052886963, 0.4816116392612457, 0.654052734375, 0.40673828125, -0.745361328125, 0, 
127, 450010110, 6.476078033447266, 26.61048698425293, 24.988895416259766, -4.815764904022217, 1.0179173946380615, 8.713217735290527, -0.540178656578064, -3.0544209480285645, 0.3499288856983185, 0.656005859375, 0.4052734375, -0.744873046875, 0, 
128, 450018443, 6.47099494934082, 26.585693359375, 24.989797592163086, -4.824464321136475, 1.023023009300232, 8.718106269836426, -0.6420463919639587, -3.0229663848876953, 0.39257657527923584, 0.657958984375, 0.40380859375, -0.744873046875, 0, 
129, 450026776, 6.468660831451416, 26.578039169311523, 25.01618766784668, -4.806338310241699, 1.0242712497711182, 8.712141036987305, -0.5936354994773865, -2.9642841815948486, 0.412632554769516, 0.655029296875, 0.404296875, -0.749755859375, 0, 
130, 450035109, 6.4648942947387695, 26.553611755371094, 25.017181396484375, -4.805687427520752, 1.0366744995117188, 8.720117568969727, -0.487669438123703, -2.9811129570007324, 0.39288395643234253, 0.656982421875, 0.40380859375, -0.748291015625, 0, 
131, 450043442, 6.461911201477051, 26.54444122314453, 25.040822982788086, -4.821147918701172, 1.007219672203064, 8.713977813720703, -0.6230918765068054, -3.170529842376709, 0.3405284285545349, 0.656005859375, 0.40625, -0.748291015625, 0, 
132, 450051775, 6.4576287269592285, 26.519756317138672, 25.041810989379883, -4.827817440032959, 1.0237864255905151, 8.658469200134277, -0.5484263896942139, -3.015307903289795, 0.39626505970954895, 0.656005859375, 0.40478515625, -0.745361328125, 0, 
133, 450060108, 6.45635461807251, 26.51125717163086, 25.067129135131836, -4.833803653717041, 0.9995550513267517, 8.68305778503418, -0.47048231959342957, -3.094635248184204, 0.4360952079296112, 0.656494140625, 0.4033203125, -0.747314453125, 0, 
134, 450068441, 6.453221321105957, 26.485973358154297, 25.06834602355957, -4.799249172210693, 1.0263346433639526, 8.700115203857422, -0.4215591251850128, -3.088282823562622, 0.4263617694377899, 0.656982421875, 0.404296875, -0.748291015625, 0, 
135, 450076774, 6.4523820877075195, 26.4775333404541, 25.095489501953125, -4.808365821838379, 1.0336085557937622, 8.697728157043457, -0.44094908237457275, -3.108185291290283, 0.48921912908554077, 0.656494140625, 0.4052734375, -0.749755859375, 0, 
136, 450085107, 6.449640274047852, 26.45292854309082, 25.09768295288086, -4.796481132507324, 1.0316698551177979, 8.679279327392578, -0.4279882311820984, -3.0001440048217773, 0.5188034772872925, 0.655029296875, 0.4072265625, -0.745849609375, 0, 
137, 450093440, 6.449134349822998, 26.445032119750977, 25.122032165527344, -4.8138532638549805, 1.0171928405761719, 8.668001174926758, -0.3985831141471863, -3.0607986450195312, 0.47331270575523376, 0.656494140625, 0.40625, -0.747314453125, 0, 
138, 450101773, 6.445871829986572, 26.420114517211914, 25.123424530029297, -4.818519592285156, 0.9986448287963867, 8.681619644165039, -0.4457133412361145, -3.052217721939087, 0.43550601601600647, 0.652099609375, 0.40478515625, -0.744873046875, 0, 
139, 450110106, 6.44586181640625, 26.412559509277344, 25.14981460571289, -4.808528900146484, 1.0185121297836304, 8.689117431640625, -0.33961912989616394, -3.039820432662964, 0.4681641757488251, 0.654541015625, 0.40478515625, -0.750244140625, 0, 
140, 450118439, 6.442517280578613, 26.38775634765625, 25.15097999572754, -4.805458068847656, 1.0310145616531372, 8.704312324523926, -0.4432799816131592, -3.045583963394165, 0.40925145149230957, 0.652099609375, 0.408203125, -0.746826171875, 0, 
141, 450126772, 6.442253112792969, 26.381067276000977, 25.17542266845703, -4.786833763122559, 1.0453369617462158, 8.703853607177734, -0.39801958203315735, -2.951220989227295, 0.5213649868965149, 0.654541015625, 0.4052734375, -0.745849609375, 0, 
142, 450135105, 6.440565586090088, 26.356983184814453, 25.177722930908203, -4.793394088745117, 1.043705940246582, 8.688305854797363, -0.30468133091926575, -2.951733112335205, 0.5165494680404663, 0.655517578125, 0.40478515625, -0.748779296875, 0, 
143, 450143438, 6.442061901092529, 26.351627349853516, 25.203590393066406, -4.836765766143799, 1.0385164022445679, 8.714900016784668, -0.18977585434913635, -2.8095483779907227, 0.49859389662742615, 0.656005859375, 0.40625, -0.749267578125, 0, 
144, 450151771, 6.4402241706848145, 26.328948974609375, 25.206274032592773, -4.786001205444336, 1.0161349773406982, 8.711620330810547, -0.34077173471450806, -2.7827045917510986, 0.539935290813446, 0.657470703125, 0.40625, -0.748291015625, 0, 
145, 450160104, 6.440625190734863, 26.323585510253906, 25.2310733795166, -4.829785346984863, 1.0002692937850952, 8.694683074951172, -0.349096417427063, -2.8286314010620117, 0.5433163046836853, 0.656494140625, 0.40478515625, -0.748291015625, 0, 
146, 450168437, 6.4388508796691895, 26.3018798828125, 25.233108520507812, -4.819223880767822, 1.0183062553405762, 8.712986946105957, -0.29884129762649536, -2.6792235374450684, 0.455331414937973, 0.657958984375, 0.40673828125, -0.747314453125, 0, 
147, 450176770, 6.439394474029541, 26.297527313232422, 25.258703231811523, -4.806342124938965, 1.0311933755874634, 8.690497398376465, -0.2909008860588074, -2.7367019653320312, 0.4564072787761688, 0.655029296875, 0.40478515625, -0.747802734375, 0, 
148, 450185103, 6.4366536140441895, 26.274324417114258, 25.260555267333984, -4.829500198364258, 1.0258853435516357, 8.689506530761719, -0.4032449424266815, -2.864055871963501, 0.45320552587509155, 0.657958984375, 0.40625, -0.747802734375, 0, 
149, 450193436, 6.436806678771973, 26.26848793029785, 25.285125732421875, -4.836714267730713, 1.0366328954696655, 8.71811294555664, -0.34487006068229675, -2.9334959983825684, 0.49178051948547363, 0.654541015625, 0.40380859375, -0.747802734375, 0, 
150, 450201769, 6.434418678283691, 26.243545532226562, 25.28752326965332, -4.814540386199951, 1.0344675779342651, 8.722502708435059, -0.3901560306549072, -3.07124924659729, 0.532097339630127, 0.655517578125, 0.40576171875, -0.745849609375, 0, 
151, 450210102, 6.434420108795166, 26.237083435058594, 25.314027786254883, -4.793705940246582, 1.0233362913131714, 8.705056190490723, -0.39699506759643555, -3.027116298675537, 0.56375652551651, 0.654541015625, 0.4033203125, -0.748779296875, 0, 
152, 450218435, 6.432713985443115, 26.212480545043945, 25.315874099731445, -4.809882164001465, 1.0129796266555786, 8.658994674682617, -0.27747899293899536, -3.0437393188476562, 0.4675237834453583, 0.654052734375, 0.4052734375, -0.749267578125, 0, 
153, 450226768, 6.433954238891602, 26.206924438476562, 25.340255737304688, -4.8112969398498535, 1.0073291063308716, 8.68907356262207, -0.2554507553577423, -2.9377219676971436, 0.5623989105224609, 0.654541015625, 0.4052734375, -0.748779296875, 0, 
154, 450235101, 6.432271957397461, 26.1834716796875, 25.342575073242188, -4.8061041831970215, 1.0367156267166138, 8.68036937713623, -0.29850828647613525, -2.9060118198394775, 0.5001307129859924, 0.656005859375, 0.40576171875, -0.745361328125, 0, 
155, 450243434, 6.433731555938721, 26.178529739379883, 25.367660522460938, -4.809883117675781, 1.012808918952942, 8.708449363708496, -0.2227926403284073, -2.8919754028320312, 0.5499504804611206, 0.655517578125, 0.4091796875, -0.747802734375, 0, 
156, 450251767, 6.432713031768799, 26.15468406677246, 25.36988067626953, -4.803497314453125, 1.0221590995788574, 8.695687294006348, -0.2138020098209381, -2.9606213569641113, 0.4935222566127777, 0.657958984375, 0.4052734375, -0.747314453125, 0, 
157, 450260100, 6.433757781982422, 26.149906158447266, 25.395336151123047, -4.776607036590576, 1.0202033519744873, 8.686911582946777, -0.26917997002601624, -2.8965601921081543, 0.5385264158248901, 0.653564453125, 0.40478515625, -0.749755859375, 0, 
158, 450268433, 6.433189868927002, 26.127172470092773, 25.397640228271484, -4.807898998260498, 1.0333812236785889, 8.700157165527344, -0.16247110068798065, -2.831372022628784, 0.4856843650341034, 0.655517578125, 0.408203125, -0.748291015625, 0, 
159, 450276766, 6.43424129486084, 26.121789932250977, 25.421749114990234, -4.826535224914551, 0.989920437335968, 8.691208839416504, -0.24502578377723694, -2.9966351985931396, 0.4977998733520508, 0.656494140625, 0.40380859375, -0.745849609375, 0, 
160, 450285099, 6.432508945465088, 26.09829330444336, 25.42414665222168, -4.81748104095459, 1.044700264930725, 8.704582214355469, -0.30675607919692993, -2.9274251461029053, 0.5037167072296143, 0.656982421875, 0.404296875, -0.748291015625, 0, 
161, 450293432, 6.432960510253906, 26.093290328979492, 25.450828552246094, -4.827760696411133, 1.0119532346725464, 8.696358680725098, -0.3216891884803772, -2.976579189300537, 0.5073283910751343, 0.655029296875, 0.408203125, -0.748291015625, 0, 
162, 450301765, 6.431521415710449, 26.069671630859375, 25.452518463134766, -4.814573764801025, 1.072099208831787, 8.714972496032715, -0.23275655508041382, -2.9570865631103516, 0.4269508719444275, 0.658447265625, 0.40576171875, -0.747314453125, 0, 
163, 450310098, 6.432345867156982, 26.065013885498047, 25.47603988647461, -4.819142818450928, 1.0317516326904297, 8.733813285827637, -0.2562960088253021, -2.9685873985290527, 0.4573294222354889, 0.655517578125, 0.40625, -0.746337890625, 0, 
164, 450318431, 6.429808139801025, 26.041486740112305, 25.477243423461914, -4.820995330810547, 1.0484660863876343, 8.707176208496094, -0.33826160430908203, -2.957854986190796, 0.3719314932823181, 0.656494140625, 0.40380859375, -0.746337890625, 0, 
165, 450326764, 6.430310249328613, 26.036529541015625, 25.50260353088379, -4.797161102294922, 1.0261261463165283, 8.711145401000977, -0.29002997279167175, -3.0307018756866455, 0.4419095516204834, 0.657470703125, 0.40771484375, -0.748291015625, 0, 
166, 450335097, 6.4290876388549805, 26.01361846923828, 25.505205154418945, -4.808649063110352, 1.0248191356658936, 8.679652214050293, -0.25360655784606934, -2.873814821243286, 0.5102227330207825, 0.656982421875, 0.404296875, -0.749755859375, 0, 
167, 450343430, 6.429520606994629, 26.01009750366211, 25.531137466430664, -4.7923102378845215, 1.040696620941162, 8.723138809204102, -0.30132588744163513, -2.886237859725952, 0.4250810146331787, 0.654541015625, 0.40625, -0.748779296875, 0, 
168, 450351763, 6.42752742767334, 25.98792266845703, 25.53270149230957, -4.804751396179199, 1.0303120613098145, 8.67600154876709, -0.2908496558666229, -2.805757999420166, 0.387300044298172, 0.656005859375, 0.40380859375, -0.745849609375, 0, 
169, 450360096, 6.428695201873779, 25.98454475402832, 25.557327270507812, -4.821138381958008, 1.014155626296997, 8.669139862060547, -0.2465370148420334, -2.886903762817383, 0.48358389735221863, 0.654052734375, 0.4072265625, -0.750244140625, 0, 
170, 450368429, 6.427482604980469, 25.961685180664062, 25.559268951416016, -4.8272318840026855, 1.028609037399292, 8.707056045532227, -0.21398133039474487, -2.888542890548706, 0.4363512694835663, 0.653076171875, 0.40576171875, -0.748291015625, 0, 
171, 450376762, 6.428995132446289, 25.957918167114258, 25.583860397338867, -4.829127311706543, 1.0232454538345337, 8.70944595336914, -0.21941155195236206, -2.9611339569091797, 0.5166007280349731, 0.657958984375, 0.40576171875, -0.745849609375, 0, 
172, 450385095, 6.427649021148682, 25.934459686279297, 25.58547019958496, -4.829110145568848, 1.0400911569595337, 8.6845064163208, -0.21239323914051056, -2.9720966815948486, 0.40630581974983215, 0.657958984375, 0.40283203125, -0.747314453125, 0, 
173, 450393428, 6.428125381469727, 25.931089401245117, 25.61153221130371, -4.838995933532715, 1.045375108718872, 8.72086238861084, -0.33354854583740234, -2.9472250938415527, 0.49011555314064026, 0.656982421875, 0.40478515625, -0.747802734375, 0, 
174, 450401761, 6.426046371459961, 25.908069610595703, 25.613216400146484, -4.8205246925354, 1.0070350170135498, 8.682809829711914, -0.30406656861305237, -2.923992872238159, 0.40535807609558105, 0.657958984375, 0.40771484375, -0.746826171875, 0, 
175, 450410094, 6.426410675048828, 25.90424156188965, 25.63814926147461, -4.822894096374512, 1.0217628479003906, 8.676324844360352, -0.3412584662437439, -3.0373616218566895, 0.47684741020202637, 0.656005859375, 0.40283203125, -0.746826171875, 0, 
176, 450418427, 6.424532413482666, 25.881765365600586, 25.640104293823242, -4.799000263214111, 1.0285675525665283, 8.695404052734375, -0.2913619577884674, -2.8635690212249756, 0.42648980021476746, 0.654052734375, 0.404296875, -0.744384765625, 0, 
177, 450426760, 6.425770282745361, 25.879261016845703, 25.666805267333984, -4.811201095581055, 1.0378600358963013, 8.704330444335938, -0.26326313614845276, -2.905268907546997, 0.5169848799705505, 0.657958984375, 0.40283203125, -0.749267578125, 0, 
178, 450435093, 6.423170566558838, 25.856857299804688, 25.667991638183594, -4.780383586883545, 1.0227724313735962, 8.702200889587402, -0.3376724421977997, -2.8710227012634277, 0.3397856056690216, 0.656494140625, 0.40625, -0.745849609375, 0, 
179, 450443426, 6.423323631286621, 25.854658126831055, 25.6927433013916, -4.7844414710998535, 1.0614988803863525, 8.672229766845703, -0.3418731689453125, -2.909085273742676, 0.402130663394928, 0.655517578125, 0.4033203125, -0.745849609375, 0, 
180, 450451759, 6.4204206466674805, 25.83283805847168, 25.693614959716797, -4.7986741065979, 1.043056845664978, 8.695075035095215, -0.35721611976623535, -2.813288450241089, 0.29496076703071594, 0.655029296875, 0.404296875, -0.748291015625, 0, 
181, 450460092, 6.421220302581787, 25.832094192504883, 25.720170974731445, -4.814995765686035, 1.0172048807144165, 8.726043701171875, -0.3084978759288788, -2.753863573074341, 0.4688301682472229, 0.656494140625, 0.40625, -0.750732421875, 0, 
182, 450468425, 6.419342041015625, 25.810909271240234, 25.72271728515625, -4.818815231323242, 1.04887056350708, 8.679407119750977, -0.32163798809051514, -2.7242531776428223, 0.4646294414997101, 0.656494140625, 0.40478515625, -0.748291015625, 0, 
183, 450476758, 6.421003818511963, 25.809785842895508, 25.748960494995117, -4.812800884246826, 1.032222867012024, 8.691953659057617, -0.21605609357357025, -2.826838493347168, 0.4940345883369446, 0.655029296875, 0.40478515625, -0.747314453125, 0, 
184, 450485091, 6.418511390686035, 25.787700653076172, 25.750690460205078, -4.804995059967041, 1.0408155918121338, 8.74148941040039, -0.35040274262428284, -2.8499934673309326, 0.38640356063842773, 0.656005859375, 0.40234375, -0.745849609375, 0, 
185, 450493424, 6.4189629554748535, 25.786666870117188, 25.775882720947266, -4.824718952178955, 1.0305911302566528, 8.686612129211426, -0.33388155698776245, -2.853682041168213, 0.4283596873283386, 0.654052734375, 0.40478515625, -0.748291015625, 0, 
186, 450501757, 6.417088508605957, 25.763992309570312, 25.778182983398438, -4.821025848388672, 1.039341688156128, 8.71709156036377, -0.30544978380203247, -2.9196643829345703, 0.45141249895095825, 0.656005859375, 0.4052734375, -0.748779296875, 0, 
187, 450510090, 6.418285846710205, 25.762474060058594, 25.80280876159668, -4.828740119934082, 1.0363030433654785, 8.672340393066406, -0.26523539423942566, -2.9397714138031006, 0.4741322696208954, 0.658935546875, 0.4052734375, -0.746337890625, 0, 
188, 450518423, 6.416050434112549, 25.739408493041992, 25.80481719970703, -4.829655647277832, 1.032745599746704, 8.66376781463623, -0.33326682448387146, -2.978423595428467, 0.42438948154449463, 0.655517578125, 0.4033203125, -0.745361328125, 0, 
189, 450526756, 6.41654634475708, 25.73903465270996, 25.8310489654541, -4.817172050476074, 1.0342953205108643, 8.671792984008789, -0.34463953971862793, -2.8390307426452637, 0.4437282383441925, 0.656982421875, 0.40673828125, -0.746337890625, 0, 
190, 450535089, 6.4144206047058105, 25.715578079223633, 25.833213806152344, -4.821962356567383, 1.0322587490081787, 8.691802978515625, -0.32632535696029663, -3.031137704849243, 0.4418583810329437, 0.653076171875, 0.4052734375, -0.746826171875, 0, 
191, 450543422, 6.415470600128174, 25.71341896057129, 25.85932159423828, -4.809863090515137, 1.0301457643508911, 8.704216957092285, -0.2962286174297333, -3.084235668182373, 0.5009503364562988, 0.658935546875, 0.40478515625, -0.746826171875, 0, 
192, 450551755, 6.412848472595215, 25.689226150512695, 25.860910415649414, -4.807398796081543, 1.026786208152771, 8.669740676879883, -0.3540399372577667, -3.134106397628784, 0.3883502185344696, 0.654541015625, 0.4052734375, -0.749755859375, 0, 
193, 450560088, 6.413380146026611, 25.68743133544922, 25.887279510498047, -4.811580181121826, 1.0243759155273438, 8.724177360534668, -0.3692803978919983, -3.0723764896392822, 0.5157554149627686, 0.656494140625, 0.404296875, -0.748291015625, 0, 
194, 450568421, 6.41068696975708, 25.664087295532227, 25.890378952026367, -4.814080715179443, 1.0429997444152832, 8.69228458404541, -0.4417943060398102, -3.022812843322754, 0.537348210811615, 0.656494140625, 0.404296875, -0.747314453125, 0, 
195, 450576754, 6.410064220428467, 25.662466049194336, 25.914270401000977, -4.804458141326904, 1.039193034172058, 8.677332878112793, -0.45191195607185364, -3.0990917682647705, 0.39790433645248413, 0.661376953125, 0.40625, -0.748291015625, 0, 
196, 450585087, 6.407410621643066, 25.639141082763672, 25.9164981842041, -4.811103820800781, 1.035178542137146, 8.704414367675781, -0.39051464200019836, -3.0391032695770264, 0.43975797295570374, 0.657470703125, 0.40625, -0.747314453125, 0, 
197, 450593420, 6.407471179962158, 25.638771057128906, 25.942171096801758, -4.81374454498291, 1.0478312969207764, 8.71290397644043, -0.3911549746990204, -2.9799087047576904, 0.41716623306274414, 0.656494140625, 0.40576171875, -0.744384765625, 0, 
198, 450601753, 6.405059337615967, 25.61651611328125, 25.94407844543457, -4.81755256652832, 1.0333402156829834, 8.693533897399902, -0.34279531240463257, -2.9259393215179443, 0.38901615142822266, 0.653076171875, 0.40478515625, -0.749755859375, 0, 
199, 450610086, 6.406040191650391, 25.61659049987793, 25.972135543823242, -4.809181213378906, 1.0440759658813477, 8.70451831817627, -0.34602272510528564, -2.944869041442871, 0.5367591977119446, 0.656494140625, 0.40576171875, -0.750244140625, 0, 
200, 450618419, 6.403976917266846, 25.593664169311523, 25.97477912902832, -4.822875022888184, 1.0207397937774658, 8.680350303649902, -0.33785173296928406, -3.0036535263061523, 0.47367122769355774, 0.657470703125, 0.40380859375, -0.749755859375, 0, 
201, 450626752, 6.404094696044922, 25.593828201293945, 26.000457763671875, -4.805692195892334, 1.046010971069336, 8.68343734741211, -0.4333672523498535, -2.9736080169677734, 0.49797916412353516, 0.657470703125, 0.4072265625, -0.745849609375, 0, 
202, 450635085, 6.402064800262451, 25.571327209472656, 26.003337860107422, -4.81820821762085, 1.036926507949829, 8.688849449157715, -0.3449469208717346, -2.9594943523406982, 0.4906790852546692, 0.656982421875, 0.40576171875, -0.747802734375, 0, 
203, 450643418, 6.402047157287598, 25.571317672729492, 26.03042221069336, -4.818024158477783, 1.0274102687835693, 8.713224411010742, -0.4428445100784302, -3.034236431121826, 0.480049192905426, 0.656494140625, 0.404296875, -0.750244140625, 0, 
204, 450651751, 6.399070739746094, 25.546916961669922, 26.033536911010742, -4.811844348907471, 1.0346524715423584, 8.700501441955566, -0.4691247045993805, -3.193634033203125, 0.5393973588943481, 0.656005859375, 0.40625, -0.747314453125, 0, 
205, 450660084, 6.399205207824707, 25.547016143798828, 26.058473587036133, -4.817111968994141, 1.0437935590744019, 8.698360443115234, -0.45795688033103943, -3.0477097034454346, 0.544699490070343, 0.654541015625, 0.40576171875, -0.746337890625, 0, 
206, 450668417, 6.3959503173828125, 25.522993087768555, 26.06169319152832, -4.814960479736328, 1.0399116277694702, 8.702481269836426, -0.5065215229988098, -3.1556484699249268, 0.5414209365844727, 0.657470703125, 0.404296875, -0.746826171875, 0, 
207, 450676750, 6.395293712615967, 25.523027420043945, 26.086563110351562, -4.811309814453125, 1.0433398485183716, 8.69936752319336, -0.526756763458252, -3.0994248390197754, 0.48688817024230957, 0.657470703125, 0.40185546875, -0.746826171875, 0, 
208, 450685083, 6.392565727233887, 25.49933433532715, 26.089792251586914, -4.812211036682129, 1.0380343198776245, 8.67072868347168, -0.4425883889198303, -3.126652956008911, 0.5352478623390198, 0.655517578125, 0.40576171875, -0.745849609375, 0, 
209, 450693416, 6.3930559158325195, 25.49971580505371, 26.11511993408203, -4.808230876922607, 1.024814248085022, 8.693083763122559, -0.35375821590423584, -3.103548765182495, 0.39982542395591736, 0.655029296875, 0.404296875, -0.748291015625, 0, 
210, 450701749, 6.390783786773682, 25.476394653320312, 26.118152618408203, -4.811583995819092, 1.0415143966674805, 8.674142837524414, -0.3764267861843109, -3.092585802078247, 0.5060476064682007, 0.655029296875, 0.40478515625, -0.748291015625, 0, 
211, 450710082, 6.390711307525635, 25.47754669189453, 26.14249038696289, -4.833207130432129, 1.0300250053405762, 8.735795974731445, -0.4523985981941223, -3.0408451557159424, 0.454255610704422, 0.654541015625, 0.4052734375, -0.751220703125, 0, 
212, 450718415, 6.388399600982666, 25.455049514770508, 26.14555549621582, -4.800399303436279, 1.0154356956481934, 8.677945137023926, -0.38283035159111023, -3.0039093494415283, 0.4953921437263489, 0.655517578125, 0.40234375, -0.747802734375, 0, 
213, 450726748, 6.38844633102417, 25.455738067626953, 26.17058753967285, -4.809126377105713, 1.0335384607315063, 8.699918746948242, -0.474068284034729, -3.1265761852264404, 0.5286394357681274, 0.658935546875, 0.404296875, -0.750244140625, 0, 
214, 450735081, 6.3861403465271, 25.432809829711914, 26.173511505126953, -4.8076019287109375, 1.0426583290100098, 8.693382263183594, -0.37237975001335144, -3.06638240814209, 0.4846342206001282, 0.656005859375, 0.40625, -0.747314453125, 0, 
215, 450743414, 6.385756492614746, 25.434492111206055, 26.199304580688477, -4.809126377105713, 1.0188754796981812, 8.681096076965332, -0.4717373847961426, -3.058519124984741, 0.3993387222290039, 0.658935546875, 0.40478515625, -0.749755859375, 0, 
216, 450751747, 6.382772445678711, 25.411611557006836, 26.202281951904297, -4.824945449829102, 1.0165764093399048, 8.725727081298828, -0.4560358226299286, -3.0707366466522217, 0.48547932505607605, 0.657470703125, 0.40283203125, -0.746337890625, 0, 
217, 450760080, 6.384099960327148, 25.41288185119629, 26.22848129272461, -4.804602146148682, 1.0272164344787598, 8.72458267211914, -0.3188460171222687, -3.1311099529266357, 0.5143466591835022, 0.657958984375, 0.40380859375, -0.749755859375, 0, 
218, 450768413, 6.381832122802734, 25.389169692993164, 26.23213768005371, -4.825133323669434, 1.033332109451294, 8.701741218566895, -0.40357789397239685, -3.170197010040283, 0.5659593343734741, 0.657470703125, 0.40576171875, -0.751220703125, 0, 
219, 450776746, 6.382470607757568, 25.38985824584961, 26.259265899658203, -4.80531644821167, 1.0275428295135498, 8.696798324584961, -0.42806509137153625, -3.2325165271759033, 0.5783053636550903, 0.652099609375, 0.40478515625, -0.749267578125, 0, 
220, 450785079, 6.380130767822266, 25.365453720092773, 26.261951446533203, -4.81608772277832, 1.0407525300979614, 8.676899909973145, -0.36169859766960144, -3.275036334991455, 0.4695986211299896, 0.658447265625, 0.4052734375, -0.746337890625, 0, 
221, 450793412, 6.379586219787598, 25.366779327392578, 26.286121368408203, -4.81997537612915, 1.0331826210021973, 8.691041946411133, -0.5281911492347717, -3.203213691711426, 0.47689858078956604, 0.656494140625, 0.40283203125, -0.746337890625, 0, 
222, 450801745, 6.3762030601501465, 25.34231185913086, 26.288820266723633, -4.813774108886719, 1.0451935529708862, 8.730108261108398, -0.4851336181163788, -3.293811082839966, 0.4659101068973541, 0.654541015625, 0.4033203125, -0.749267578125, 0, 
223, 450810078, 6.376888275146484, 25.343564987182617, 26.3167724609375, -4.796939849853516, 1.0397639274597168, 8.694300651550293, -0.4074968695640564, -3.247321367263794, 0.5328145027160645, 0.657470703125, 0.4052734375, -0.748291015625, 0, 
224, 450818411, 6.374343395233154, 25.320335388183594, 26.319759368896484, -4.794311046600342, 1.0356945991516113, 8.717042922973633, -0.3996333181858063, -3.151883125305176, 0.4788709580898285, 0.656494140625, 0.404296875, -0.745361328125, 0, 
225, 450826744, 6.374784469604492, 25.3242244720459, 26.347631454467773, -4.803887367248535, 1.0307737588882446, 8.676536560058594, -0.4665376842021942, -2.963054656982422, 0.552588701248169, 0.654541015625, 0.40576171875, -0.747802734375, 0, 
226, 450835077, 6.3721795082092285, 25.302650451660156, 26.35053253173828, -4.8025383949279785, 1.041489839553833, 8.688311576843262, -0.401631236076355, -2.966154098510742, 0.4441380202770233, 0.656005859375, 0.404296875, -0.750732421875, 0, 
227, 450843410, 6.3730034828186035, 25.306299209594727, 26.376237869262695, -4.8104777336120605, 1.0411542654037476, 8.719261169433594, -0.37983348965644836, -3.0387446880340576, 0.4638354182243347, 0.656005859375, 0.404296875, -0.747802734375, 0, 
228, 450851743, 6.3710784912109375, 25.284603118896484, 26.379289627075195, -4.796509742736816, 1.0102334022521973, 8.681295394897461, -0.3255825340747833, -2.9899494647979736, 0.458020955324173, 0.656494140625, 0.40185546875, -0.751220703125, 0, 
229, 450860076, 6.3724751472473145, 25.289363861083984, 26.405664443969727, -4.81340217590332, 1.0397051572799683, 8.69159984588623, -0.3495062291622162, -2.934417963027954, 0.5253607630729675, 0.656494140625, 0.40576171875, -0.749755859375, 0, 
230, 450868409, 6.370115756988525, 25.268268585205078, 26.409019470214844, -4.81766414642334, 1.0212244987487793, 8.707189559936523, -0.3928455412387848, -2.925555467605591, 0.48010045289993286, 0.657958984375, 0.4072265625, -0.747314453125, 0, 
231, 450876742, 6.370823860168457, 25.271434783935547, 26.434953689575195, -4.823060512542725, 1.034271478652954, 8.691938400268555, -0.39123186469078064, -3.1733734607696533, 0.4569963216781616, 0.654052734375, 0.40478515625, -0.748291015625, 0, 
232, 450885075, 6.3674492835998535, 25.249313354492188, 26.437763214111328, -4.797773361206055, 1.042712926864624, 8.701330184936523, -0.485184907913208, -3.065767526626587, 0.4332007169723511, 0.655029296875, 0.40283203125, -0.747314453125, 0, 
233, 450893408, 6.367598056793213, 25.253705978393555, 26.463930130004883, -4.800312042236328, 1.0169715881347656, 8.698338508605957, -0.46740853786468506, -3.0644869804382324, 0.4585331678390503, 0.656982421875, 0.40625, -0.749267578125, 0, 
234, 450901741, 6.365200519561768, 25.230222702026367, 26.466964721679688, -4.821224212646484, 1.030369520187378, 8.673882484436035, -0.3779124319553375, -3.236102342605591, 0.470571905374527, 0.655517578125, 0.40625, -0.745849609375, 0, 
235, 450910074, 6.3663330078125, 25.23430824279785, 26.494319915771484, -4.810263633728027, 1.0483192205429077, 8.684985160827637, -0.4115951657295227, -3.1250646114349365, 0.5897805690765381, 0.657470703125, 0.40283203125, -0.745361328125, 0, 
236, 450918407, 6.3633131980896, 25.210988998413086, 26.496395111083984, -4.813841342926025, 1.031787395477295, 8.687808990478516, -0.4002992510795593, -3.2385103702545166, 0.3617626428604126, 0.654541015625, 0.40625, -0.745849609375, 0, 
237, 450926740, 6.364010334014893, 25.214801788330078, 26.52415657043457, -4.805568218231201, 1.0447394847869873, 8.658550262451172, -0.41489937901496887, -3.2113335132598877, 0.48099690675735474, 0.656005859375, 0.404296875, -0.747802734375, 0, 
238, 450935073, 6.361512660980225, 25.192548751831055, 26.528060913085938, -4.805777549743652, 1.0291507244110107, 8.723774909973145, -0.43034473061561584, -3.1000139713287354, 0.5417026281356812, 0.656494140625, 0.4072265625, -0.746826171875, 0, 
239, 450943406, 6.3618035316467285, 25.19731903076172, 26.555370330810547, -4.824774742126465, 1.0205059051513672, 8.702609062194824, -0.49245932698249817, -3.1305973529815674, 0.5219284296035767, 0.657470703125, 0.40625, -0.749755859375, 0, 
240, 450951739, 6.359000205993652, 25.174535751342773, 26.558238983154297, -4.820199966430664, 1.0513864755630493, 8.705282211303711, -0.4140028655529022, -3.188152551651001, 0.4351218342781067, 0.655517578125, 0.4033203125, -0.747802734375, 0, 
241, 450960072, 6.359658718109131, 25.178640365600586, 26.585315704345703, -4.792921543121338, 1.0487991571426392, 8.71782398223877, -0.4486076831817627, -3.249370813369751, 0.5318155288696289, 0.656005859375, 0.404296875, -0.748291015625, 0, 
242, 450968405, 6.356351375579834, 25.15532112121582, 26.588069915771484, -4.800459861755371, 1.0600796937942505, 8.695858001708984, -0.46781834959983826, -3.264892816543579, 0.4244406521320343, 0.655029296875, 0.40625, -0.747802734375, 0, 
243, 450976738, 6.357106685638428, 25.160999298095703, 26.615222930908203, -4.810226917266846, 1.0439215898513794, 8.67380142211914, -0.41236358880996704, -3.1063408851623535, 0.45205286145210266, 0.656005859375, 0.40673828125, -0.746826171875, 0, 
244, 450985071, 6.354217529296875, 25.13815689086914, 26.61833953857422, -4.824653148651123, 1.034631371498108, 8.694499015808105, -0.4344686269760132, -3.2146120071411133, 0.455766886472702, 0.655029296875, 0.404296875, -0.750244140625, 0, 
245, 450993404, 6.3548455238342285, 25.14420509338379, 26.644567489624023, -4.815000534057617, 1.0363520383834839, 8.679695129394531, -0.4442533254623413, -3.0996813774108887, 0.46865081787109375, 0.653076171875, 0.4033203125, -0.749267578125, 0, 
246, 451001737, 6.352128028869629, 25.12155532836914, 26.648597717285156, -4.817625522613525, 1.019670009613037, 8.69157600402832, -0.4587253928184509, -3.1921486854553223, 0.5460058450698853, 0.656005859375, 0.408203125, -0.747314453125, 0, 
247, 451010070, 6.35354471206665, 25.127370834350586, 26.674535751342773, -4.8120646476745605, 1.0564566850662231, 8.668517112731934, -0.35555118322372437, -3.167968511581421, 0.4795624613761902, 0.657958984375, 0.404296875, -0.745849609375, 0, 
248, 451018403, 6.350703716278076, 25.105064392089844, 26.678754806518555, -4.807240009307861, 1.034379482269287, 8.66480827331543, -0.4807279407978058, -3.1625382900238037, 0.5589922666549683, 0.655029296875, 0.404296875, -0.748291015625, 0, 
249, 451026736, 6.351292610168457, 25.111732482910156, 26.706987380981445, -4.81248140335083, 1.0416768789291382, 8.66463851928711, -0.4459438621997833, -3.107851982116699, 0.44083383679389954, 0.655517578125, 0.40283203125, -0.747802734375, 0, 
250, 451035069, 6.34829044342041, 25.08963394165039, 26.709964752197266, -4.813782215118408, 1.0486027002334595, 8.684183120727539, -0.43626168370246887, -3.163665771484375, 0.4184981882572174, 0.655029296875, 0.4052734375, -0.747802734375, 0, 
251, 451043402, 6.348788261413574, 25.096424102783203, 26.73658561706543, -4.833049774169922, 1.0360740423202515, 8.677909851074219, -0.48405781388282776, -3.1293420791625977, 0.49541768431663513, 0.656494140625, 0.404296875, -0.746826171875, 0, 
252, 451051735, 6.346502780914307, 25.075864791870117, 26.740461349487305, -4.822417736053467, 1.0227775573730469, 8.690335273742676, -0.39425432682037354, -2.9807286262512207, 0.49137064814567566, 0.655517578125, 0.404296875, -0.747802734375, 0, 
253, 451060068, 6.347776889801025, 25.08406639099121, 26.767702102661133, -4.814777374267578, 1.037435531616211, 8.675683975219727, -0.40273261070251465, -3.0020394325256348, 0.4900386929512024, 0.656494140625, 0.40478515625, -0.748291015625, 0, 
254, 451068401, 6.344639778137207, 25.063711166381836, 26.770994186401367, -4.807337284088135, 1.0220189094543457, 8.710382461547852, -0.46564117074012756, -2.976322889328003, 0.42167434096336365, 0.655029296875, 0.40283203125, -0.748779296875, 0, 
255, 451076734, 6.345549583435059, 25.071685791015625, 26.79844856262207, -4.8068928718566895, 1.027743935585022, 8.68347454071045, -0.44028303027153015, -3.0722992420196533, 0.4769498109817505, 0.655029296875, 0.40380859375, -0.747802734375, 0, 
256, 451085067, 6.342928409576416, 25.050601959228516, 26.801475524902344, -4.810964584350586, 1.0472826957702637, 8.723845481872559, -0.38749217987060547, -3.078780174255371, 0.39823734760284424, 0.655029296875, 0.40478515625, -0.748291015625, 0, 
257, 451093400, 6.343405723571777, 25.058074951171875, 26.827232360839844, -4.813185691833496, 1.0309230089187622, 8.708041191101074, -0.445175439119339, -3.1800074577331543, 0.3828175663948059, 0.654052734375, 0.404296875, -0.750732421875, 0, 
258, 451101733, 6.3401265144348145, 25.036195755004883, 26.830556869506836, -4.827610969543457, 1.0034615993499756, 8.713915824890137, -0.4812914729118347, -3.181800127029419, 0.43914324045181274, 0.654052734375, 0.4033203125, -0.749755859375, 0, 
259, 451110066, 6.341038703918457, 25.0438232421875, 26.856569290161133, -4.799385070800781, 1.0284069776535034, 8.71375560760498, -0.43265005946159363, -3.1922764778137207, 0.4575086534023285, 0.654052734375, 0.40478515625, -0.745849609375, 0, 
260, 451118399, 6.3384504318237305, 25.020915985107422, 26.859651565551758, -4.826525688171387, 1.0251156091690063, 8.717854499816895, -0.38339391350746155, -3.318964719772339, 0.4223915636539459, 0.656982421875, 0.40673828125, -0.746337890625, 0, 
261, 451126732, 6.339852333068848, 25.028005599975586, 26.886789321899414, -4.787876129150391, 1.0390440225601196, 8.712645530700684, -0.40742000937461853, -3.286844253540039, 0.5373994708061218, 0.655517578125, 0.4072265625, -0.750732421875, 0, 
262, 451135065, 6.336916923522949, 25.00611114501953, 26.89035987854004, -4.786888599395752, 1.0299137830734253, 8.704205513000488, -0.4491456151008606, -3.205416679382324, 0.4584563970565796, 0.656005859375, 0.404296875, -0.747802734375, 0, 
263, 451143398, 6.337480545043945, 25.01370620727539, 26.916364669799805, -4.8116583824157715, 1.0395352840423584, 8.695390701293945, -0.5080071687698364, -3.2645857334136963, 0.5272562503814697, 0.655517578125, 0.40576171875, -0.750244140625, 0, 
264, 451151731, 6.334945201873779, 24.99211883544922, 26.920269012451172, -4.795948028564453, 1.011275291442871, 8.719902038574219, -0.4160520136356354, -3.1764724254608154, 0.48622217774391174, 0.655029296875, 0.40625, -0.750244140625, 0, 
265, 451160064, 6.335413932800293, 25.00098991394043, 26.946269989013672, -4.799797058105469, 1.041067361831665, 8.683080673217773, -0.5007070302963257, -3.1542391777038574, 0.46857404708862305, 0.656494140625, 0.40869140625, -0.747802734375, 0, 
266, 451168397, 6.332581996917725, 24.980100631713867, 26.94934844970703, -4.795888900756836, 1.0362545251846313, 8.744369506835938, -0.410211980342865, -3.1166887283325195, 0.38450807332992554, 0.657470703125, 0.40478515625, -0.747802734375, 0, 
267, 451176730, 6.334081649780273, 24.990936279296875, 26.975915908813477, -4.8113813400268555, 1.039082646369934, 8.691938400268555, -0.3787320852279663, -2.9565231800079346, 0.4446759521961212, 0.654541015625, 0.40673828125, -0.748291015625, 0, 
268, 451185063, 6.331171989440918, 24.971229553222656, 26.979267120361328, -4.79980993270874, 1.0312891006469727, 8.698502540588379, -0.4313949644565582, -2.98359751701355, 0.3934730887413025, 0.655517578125, 0.40234375, -0.748779296875, 0, 
269, 451193396, 6.332215785980225, 24.98107147216797, 27.004241943359375, -4.7942585945129395, 1.029850721359253, 8.656041145324707, -0.42376187443733215, -3.115408420562744, 0.43140774965286255, 0.654541015625, 0.4052734375, -0.748291015625, 0, 
270, 451201729, 6.329909324645996, 24.961414337158203, 27.00804328918457, -4.815278053283691, 1.0461481809616089, 8.6912841796875, -0.3794236183166504, -2.9845449924468994, 0.4379136860370636, 0.655517578125, 0.40673828125, -0.748291015625, 0, 
271, 451210062, 6.331814765930176, 24.971466064453125, 27.03506851196289, -4.812828063964844, 1.027622938156128, 8.700589179992676, -0.3745057284832001, -3.115177869796753, 0.5367335081100464, 0.655029296875, 0.40576171875, -0.746826171875, 0, 
272, 451218395, 6.328801155090332, 24.951602935791016, 27.03801727294922, -4.822054862976074, 1.020389199256897, 8.700736999511719, -0.42009904980659485, -3.0327508449554443, 0.34644532203674316, 0.656005859375, 0.404296875, -0.747314453125, 0, 
273, 451226728, 6.331384658813477, 24.962629318237305, 27.065038681030273, -4.824195861816406, 1.0261740684509277, 8.683463096618652, -0.2998146414756775, -3.035517454147339, 0.535965085029602, 0.654052734375, 0.4052734375, -0.749755859375, 0, 
274, 451235061, 6.328361511230469, 24.941247940063477, 27.068077087402344, -4.81376838684082, 1.0383964776992798, 8.707111358642578, -0.4254012405872345, -3.2251906394958496, 0.3715216815471649, 0.657470703125, 0.404296875, -0.746826171875, 0, 
275, 451243394, 6.329067707061768, 24.950927734375, 27.093555450439453, -4.823791980743408, 1.0236425399780273, 8.716497421264648, -0.4563432037830353, -3.253135919570923, 0.406100869178772, 0.656005859375, 0.404296875, -0.747314453125, 0, 
276, 451251727, 6.326440334320068, 24.92945098876953, 27.097576141357422, -4.794795989990234, 1.0417982339859009, 8.67908763885498, -0.42555490136146545, -3.239252805709839, 0.4749007225036621, 0.654541015625, 0.404296875, -0.746826171875, 0, 
277, 451260060, 6.32747220993042, 24.939838409423828, 27.123682022094727, -4.810990333557129, 1.0087286233901978, 8.700057983398438, -0.4475575089454651, -3.197885751724243, 0.4585844576358795, 0.653076171875, 0.40673828125, -0.749755859375, 0, 
278, 451268393, 6.32588529586792, 24.919261932373047, 27.1289005279541, -4.81933069229126, 1.0308384895324707, 8.702529907226562, -0.35952141880989075, -3.12929105758667, 0.5915479063987732, 0.655029296875, 0.4013671875, -0.745361328125, 0, 
279, 451276726, 6.32798957824707, 24.93032455444336, 27.153709411621094, -4.8074188232421875, 1.025042176246643, 8.70920467376709, -0.3528873026371002, -3.146862506866455, 0.5186754465103149, 0.658935546875, 0.40185546875, -0.748291015625, 0, 
280, 451285059, 6.326404571533203, 24.91016387939453, 27.15736961364746, -4.800350189208984, 1.0268319845199585, 8.70559310913086, -0.2804246246814728, -3.1138968467712402, 0.4140925109386444, 0.655029296875, 0.4052734375, -0.748779296875, 0, 
281, 451293392, 6.327550888061523, 24.921627044677734, 27.18610382080078, -4.8181328773498535, 1.0289092063903809, 8.71065616607666, -0.42647698521614075, -3.14542818069458, 0.4215974807739258, 0.657958984375, 0.404296875, -0.748291015625, 0, 
282, 451301725, 6.325308799743652, 24.90093994140625, 27.190536499023438, -4.80807638168335, 1.0301573276519775, 8.730603218078613, -0.395381361246109, -3.179290294647217, 0.5014627575874329, 0.654541015625, 0.40478515625, -0.746826171875, 0, 
283, 451310058, 6.326118469238281, 24.911941528320312, 27.2183895111084, -4.807456970214844, 1.050819754600525, 8.689384460449219, -0.4494785964488983, -3.2402775287628174, 0.38619863986968994, 0.657958984375, 0.40576171875, -0.751220703125, 0, 
284, 451318391, 6.322835445404053, 24.89248275756836, 27.221267700195312, -4.812051773071289, 1.023532509803772, 8.670296669006348, -0.44107717275619507, -3.0639750957489014, 0.31158438324928284, 0.653564453125, 0.4033203125, -0.748291015625, 0, 
285, 451326724, 6.323813438415527, 24.90428352355957, 27.25020980834961, -4.807609558105469, 1.0390208959579468, 8.716986656188965, -0.4888732433319092, -3.167020559310913, 0.501129686832428, 0.653076171875, 0.40283203125, -0.747802734375, 0, 
286, 451335057, 6.320382595062256, 24.88530158996582, 27.25384521484375, -4.785175800323486, 1.029588222503662, 8.690908432006836, -0.4950975775718689, -3.0131819248199463, 0.38294562697410583, 0.655029296875, 0.40234375, -0.750244140625, 0, 
287, 451343390, 6.321760177612305, 24.898181915283203, 27.280113220214844, -4.804662704467773, 1.0148236751556396, 8.71434497833252, -0.4198429584503174, -3.080188751220703, 0.43822112679481506, 0.655029296875, 0.40380859375, -0.749755859375, 0, 
288, 451351723, 6.319319248199463, 24.8791561126709, 27.28495979309082, -4.800754070281982, 1.055006980895996, 8.709948539733887, -0.4358518123626709, -3.0166397094726562, 0.5088139772415161, 0.654541015625, 0.40380859375, -0.748779296875, 0, 
289, 451360056, 6.321016788482666, 24.891971588134766, 27.31195640563965, -4.799746036529541, 1.041725516319275, 8.734382629394531, -0.4371069669723511, -3.109055995941162, 0.5541000366210938, 0.655029296875, 0.404296875, -0.747314453125, 0, 
290, 451368389, 6.318920135498047, 24.872844696044922, 27.3171443939209, -4.819464206695557, 1.017012357711792, 8.700569152832031, -0.4106218218803406, -3.0370030403137207, 0.5464156866073608, 0.654541015625, 0.40625, -0.750244140625, 0, 
291, 451376722, 6.320442199707031, 24.886768341064453, 27.345102310180664, -4.808912754058838, 1.0291810035705566, 8.722451210021973, -0.4271686375141144, -3.0165116786956787, 0.46719086170196533, 0.657958984375, 0.40625, -0.747314453125, 0, 
292, 451385055, 6.318089485168457, 24.868106842041016, 27.349708557128906, -4.79488468170166, 1.0456242561340332, 8.701403617858887, -0.4103400707244873, -3.001962900161743, 0.4711354672908783, 0.653564453125, 0.404296875, -0.749755859375, 0, 
293, 451393388, 6.320155620574951, 24.882625579833984, 27.377017974853516, -4.807949066162109, 1.0350823402404785, 8.689034461975098, -0.35596102476119995, -2.982624053955078, 0.4462640583515167, 0.655517578125, 0.40185546875, -0.746337890625, 0, 
294, 451401721, 6.317437171936035, 24.863746643066406, 27.380807876586914, -4.814833641052246, 1.0419710874557495, 8.720453262329102, -0.41185131669044495, -3.0521926879882812, 0.383739709854126, 0.656494140625, 0.40625, -0.749755859375, 0, 
295, 451410054, 6.3192219734191895, 24.879199981689453, 27.41013526916504, -4.798663139343262, 1.0124146938323975, 8.707548141479492, -0.42962753772735596, -2.895433187484741, 0.509556770324707, 0.657470703125, 0.404296875, -0.752197265625, 0, 
296, 451418387, 6.316057205200195, 24.860225677490234, 27.413742065429688, -4.807199478149414, 1.0182864665985107, 8.687322616577148, -0.45485758781433105, -3.077908992767334, 0.36012333631515503, 0.651123046875, 0.40625, -0.748779296875, 0, 
297, 451426720, 6.317004203796387, 24.8751163482666, 27.43893814086914, -4.832520484924316, 1.0126187801361084, 8.719350814819336, -0.4915371239185333, -3.004319190979004, 0.43724778294563293, 0.655517578125, 0.40625, -0.748291015625, 0, 
298, 451435053, 6.315356731414795, 24.856889724731445, 27.443777084350586, -4.799191474914551, 1.0522078275680542, 8.714577674865723, -0.3340608775615692, -2.9883105754852295, 0.47922956943511963, 0.653564453125, 0.4052734375, -0.750732421875, 0, 
299, 451443386, 6.316829204559326, 24.871986389160156, 27.46915626525879, -4.793996334075928, 1.0428742170333862, 8.714494705200195, -0.400606632232666, -3.0228896141052246, 0.37667012214660645, 0.656005859375, 0.40380859375, -0.749267578125, 0, 
300, 451451719, 6.314438343048096, 24.854063034057617, 27.47397232055664, -4.807116985321045, 1.017804741859436, 8.690797805786133, -0.4198429584503174, -2.9660518169403076, 0.4705207347869873, 0.654541015625, 0.40576171875, -0.745849609375, 0, 
301, 451460052, 6.316079139709473, 24.86942481994629, 27.500030517578125, -4.787622928619385, 1.0322635173797607, 8.670703887939453, -0.39176976680755615, -3.0182533264160156, 0.38596808910369873, 0.654052734375, 0.40283203125, -0.747314453125, 0, 
302, 451468385, 6.314382076263428, 24.851558685302734, 27.504549026489258, -4.802942276000977, 1.028967261314392, 8.668088912963867, -0.3205621838569641, -2.9751193523406982, 0.43402042984962463, 0.655029296875, 0.40478515625, -0.747314453125, 0, 
303, 451476718, 6.316265106201172, 24.867090225219727, 27.530424118041992, -4.816548824310303, 1.032301664352417, 8.704136848449707, -0.38116541504859924, -3.0269877910614014, 0.4213413596153259, 0.657470703125, 0.40380859375, -0.747314453125, 0, 
304, 451485051, 6.3141255378723145, 24.849929809570312, 27.53513526916504, -4.793635845184326, 1.0428718328475952, 8.69467544555664, -0.38178014755249023, -2.9023232460021973, 0.4406032860279083, 0.655517578125, 0.40234375, -0.749267578125, 0, 
305, 451493384, 6.315641403198242, 24.865873336791992, 27.561769485473633, -4.814254283905029, 1.046684980392456, 8.707602500915527, -0.3874152898788452, -3.0212244987487793, 0.3314353823661804, 0.656982421875, 0.40625, -0.748291015625, 0, 
306, 451501717, 6.312674522399902, 24.848772048950195, 27.565725326538086, -4.804139137268066, 1.033315658569336, 8.716079711914062, -0.4421529769897461, -2.9190497398376465, 0.3559226095676422, 0.657470703125, 0.40234375, -0.746826171875, 0, 
307, 451510050, 6.314907550811768, 24.865394592285156, 27.592592239379883, -4.812207221984863, 1.02633798122406, 8.701197624206543, -0.3748643100261688, -2.9504780769348145, 0.4758484661579132, 0.657470703125, 0.40625, -0.748291015625, 0, 
308, 451518383, 6.312426567077637, 24.848237991333008, 27.59796714782715, -4.810366630554199, 1.0315024852752686, 8.714807510375977, -0.45298776030540466, -2.9236602783203125, 0.5062269568443298, 0.655517578125, 0.40234375, -0.747802734375, 0, 
309, 451526716, 6.314361572265625, 24.864639282226562, 27.624387741088867, -4.819700241088867, 1.036911129951477, 8.728123664855957, -0.4018873870372772, -3.0109024047851562, 0.4525139033794403, 0.656005859375, 0.4052734375, -0.749755859375, 0, 
310, 451535049, 6.3127121925354, 24.847434997558594, 27.629915237426758, -4.823785305023193, 1.037040114402771, 8.725907325744629, -0.3601873815059662, -2.939694404602051, 0.5192645788192749, 0.653076171875, 0.4052734375, -0.748291015625, 0, 
311, 451543382, 6.314179420471191, 24.863201141357422, 27.65549659729004, -4.817843437194824, 1.0353541374206543, 8.705402374267578, -0.46687063574790955, -3.115715742111206, 0.47920387983322144, 0.656005859375, 0.40478515625, -0.747802734375, 0, 
312, 451551715, 6.311528205871582, 24.845172882080078, 27.660747528076172, -4.794105052947998, 1.0455199480056763, 8.714323043823242, -0.46505206823349, -3.056777238845825, 0.4960581362247467, 0.656494140625, 0.4052734375, -0.748291015625, 0, 
313, 451560048, 6.3130364418029785, 24.86185646057129, 27.68590545654297, -4.809730529785156, 1.049526333808899, 8.70833969116211, -0.40670278668403625, -3.0494768619537354, 0.34570246934890747, 0.654541015625, 0.40380859375, -0.749267578125, 0, 
314, 451568381, 6.311117172241211, 24.84343147277832, 27.691242218017578, -4.808588981628418, 1.0219569206237793, 8.708466529846191, -0.37939807772636414, -3.115459442138672, 0.5074564218521118, 0.653564453125, 0.40673828125, -0.749755859375, 0, 
315, 451576714, 6.312592506408691, 24.85959815979004, 27.715675354003906, -4.791625499725342, 1.0345160961151123, 8.696138381958008, -0.4553185999393463, -3.130443811416626, 0.4371965527534485, 0.654052734375, 0.404296875, -0.748291015625, 0, 
316, 451585047, 6.310855865478516, 24.841461181640625, 27.721040725708008, -4.799001216888428, 1.032820463180542, 8.696313858032227, -0.3565501272678375, -3.094378709793091, 0.5011041164398193, 0.655029296875, 0.4072265625, -0.746337890625, 0, 
317, 451593380, 6.3126068115234375, 24.85866928100586, 27.745027542114258, -4.804172992706299, 1.0232256650924683, 8.725635528564453, -0.4393865764141083, -3.0290369987487793, 0.4600445032119751, 0.654541015625, 0.40625, -0.747314453125, 0, 
318, 451601713, 6.309804916381836, 24.840513229370117, 27.74962043762207, -4.815834999084473, 1.0362727642059326, 8.721065521240234, -0.44530344009399414, -3.120633125305176, 0.4152194857597351, 0.656005859375, 0.40380859375, -0.747314453125, 0, 
319, 451610046, 6.311418533325195, 24.857227325439453, 27.77389907836914, -4.797679424285889, 1.0210695266723633, 8.720928192138672, -0.45654815435409546, -3.116074562072754, 0.46378421783447266, 0.654541015625, 0.4052734375, -0.747802734375, 0, 
320, 451618379, 6.309360027313232, 24.839380264282227, 27.778392791748047, -4.803590297698975, 1.0216189622879028, 8.693192481994629, -0.34935253858566284, -3.0969913005828857, 0.3985958993434906, 0.652099609375, 0.40576171875, -0.748779296875, 0, 
321, 451626712, 6.311466693878174, 24.8575382232666, 27.802412033081055, -4.799806118011475, 1.0435179471969604, 8.69040584564209, -0.39130866527557373, -2.9719936847686768, 0.43412286043167114, 0.653564453125, 0.40380859375, -0.750732421875, 0, 
322, 451635045, 6.310103416442871, 24.84095573425293, 27.80801773071289, -4.79408073425293, 1.032110333442688, 8.706835746765137, -0.3222270905971527, -2.9487619400024414, 0.4983120858669281, 0.657958984375, 0.40478515625, -0.748291015625, 0, 
323, 451643378, 6.312030792236328, 24.858827590942383, 27.83035659790039, -4.795563220977783, 1.021247386932373, 8.700206756591797, -0.41612881422042847, -3.0327253341674805, 0.44196078181266785, 0.655029296875, 0.40380859375, -0.751220703125, 0, 
324, 451651711, 6.309832572937012, 24.842172622680664, 27.835153579711914, -4.822785377502441, 1.021320104598999, 8.729279518127441, -0.3801664710044861, -2.978576898574829, 0.4086110591888428, 0.656982421875, 0.404296875, -0.751708984375, 0, 
325, 451660044, 6.312456130981445, 24.86042022705078, 27.859468460083008, -4.816556930541992, 1.0235458612442017, 8.697758674621582, -0.3791675567626953, -3.002885103225708, 0.5365285873413086, 0.652099609375, 0.4033203125, -0.746337890625, 0, 
326, 451668377, 6.310559272766113, 24.843242645263672, 27.864700317382812, -4.816233158111572, 1.0303913354873657, 8.724658966064453, -0.3657456338405609, -3.0500659942626953, 0.45942968130111694, 0.656005859375, 0.40234375, -0.747314453125, 0, 
327, 451676710, 6.312946796417236, 24.861068725585938, 27.888290405273438, -4.809265613555908, 1.0451655387878418, 8.708163261413574, -0.40211790800094604, -3.0815720558166504, 0.5276404619216919, 0.656982421875, 0.40576171875, -0.752685546875, 0, 
328, 451685043, 6.311310768127441, 24.844892501831055, 27.894460678100586, -4.790384292602539, 1.0393890142440796, 8.698830604553223, -0.37929561734199524, -2.932471513748169, 0.5454680323600769, 0.656494140625, 0.40625, -0.748779296875, 0, 
329, 451693376, 6.312732696533203, 24.862957000732422, 27.917343139648438, -4.809937953948975, 1.034376859664917, 8.695019721984863, -0.4879511892795563, -3.0865917205810547, 0.45843076705932617, 0.655029296875, 0.40771484375, -0.748779296875, 0, 
330, 451701709, 6.310009956359863, 24.84560775756836, 27.922271728515625, -4.814113616943359, 1.030701994895935, 8.692867279052734, -0.4464561343193054, -3.101576566696167, 0.422263503074646, 0.655029296875, 0.40380859375, -0.749755859375, 0, 
331, 451710042, 6.311395168304443, 24.863183975219727, 27.94460678100586, -4.803948879241943, 1.052240014076233, 8.696435928344727, -0.5117468237876892, -3.1657915115356445, 0.5038704872131348, 0.657958984375, 0.40478515625, -0.751708984375, 0, 
332, 451718375, 6.309091567993164, 24.8468017578125, 27.949951171875, -4.7922868728637695, 1.0327627658843994, 8.738015174865723, -0.41666674613952637, -2.9954309463500977, 0.4522833824157715, 0.649658203125, 0.40625, -0.750244140625, 0, 
333, 451726708, 6.31101131439209, 24.864906311035156, 27.97466278076172, -4.831479072570801, 1.0235222578048706, 8.690886497497559, -0.4508873522281647, -3.1254489421844482, 0.49803033471107483, 0.654541015625, 0.40771484375, -0.751220703125, 0, 
334, 451735041, 6.309281349182129, 24.848018646240234, 27.980785369873047, -4.788590908050537, 1.044000267982483, 8.713615417480469, -0.38598090410232544, -3.0593130588531494, 0.5414208769798279, 0.659912109375, 0.4072265625, -0.748291015625, 0, 
335, 451743374, 6.310582160949707, 24.867353439331055, 28.0006046295166, -4.8068766593933105, 1.0394598245620728, 8.68024730682373, -0.4982481002807617, -3.0107483863830566, 0.4206241965293884, 0.654052734375, 0.404296875, -0.747802734375, 0, 
336, 451751707, 6.308311462402344, 24.850284576416016, 28.005680084228516, -4.806196212768555, 1.0298229455947876, 8.699352264404297, -0.3969949781894684, -3.1074674129486084, 0.42666909098625183, 0.651611328125, 0.4052734375, -0.749267578125, 0, 
337, 451760040, 6.310287952423096, 24.868499755859375, 28.028823852539062, -4.807701110839844, 1.0274579524993896, 8.726447105407715, -0.4495810866355896, -3.1585938930511475, 0.4992854595184326, 0.656005859375, 0.40625, -0.747802734375, 0, 
338, 451768373, 6.3072896003723145, 24.85111427307129, 28.034523010253906, -4.796551704406738, 1.065623164176941, 8.721059799194336, -0.5138983726501465, -3.15293288230896, 0.49608367681503296, 0.656494140625, 0.408203125, -0.749267578125, 0, 
339, 451776706, 6.308615684509277, 24.869647979736328, 28.05706787109375, -4.824222564697266, 1.0192664861679077, 8.680932998657227, -0.49192142486572266, -3.1508326530456543, 0.4187799394130707, 0.654052734375, 0.40478515625, -0.749267578125, 0, 
340, 451785039, 6.3066816329956055, 24.85209846496582, 28.062541961669922, -4.824525356292725, 1.0467634201049805, 8.675230026245117, -0.37491557002067566, -3.188971996307373, 0.47013649344444275, 0.655029296875, 0.4052734375, -0.747314453125, 0, 
341, 451793372, 6.3086018562316895, 24.871152877807617, 28.083385467529297, -4.797585487365723, 1.0232223272323608, 8.719801902770996, -0.44804418087005615, -3.105905294418335, 0.46847158670425415, 0.656005859375, 0.40478515625, -0.747314453125, 0, 
342, 451801705, 6.305995464324951, 24.854652404785156, 28.088336944580078, -4.799162864685059, 1.0453797578811646, 8.706743240356445, -0.4286542534828186, -3.0840821266174316, 0.39813491702079773, 0.653564453125, 0.40673828125, -0.748291015625, 0, 
343, 451810038, 6.308058261871338, 24.87381935119629, 28.11118507385254, -4.808926105499268, 1.0382318496704102, 8.70539665222168, -0.4264514446258545, -3.115971803665161, 0.45192480087280273, 0.656982421875, 0.40625, -0.752197265625, 0, 
344, 451818371, 6.305599689483643, 24.85768699645996, 28.11684799194336, -4.807812213897705, 1.0230690240859985, 8.726337432861328, -0.44561082124710083, -3.0436370372772217, 0.46895816922187805, 0.656005859375, 0.40625, -0.749755859375, 0, 
345, 451826704, 6.308044910430908, 24.876909255981445, 28.137760162353516, -4.798357963562012, 1.0392597913742065, 8.726127624511719, -0.4075993299484253, -3.1250903606414795, 0.5045876502990723, 0.657470703125, 0.40380859375, -0.747802734375, 0, 
346, 451835037, 6.306415557861328, 24.860422134399414, 28.143463134765625, -4.810357570648193, 1.0382814407348633, 8.697540283203125, -0.3472521901130676, -3.09924578666687, 0.4738248884677887, 0.654541015625, 0.40625, -0.747314453125, 0, 
347, 451843370, 6.309805870056152, 24.879966735839844, 28.167560577392578, -4.801997184753418, 1.0504595041275024, 8.725300788879395, -0.2930012345314026, -3.1083898544311523, 0.4957250952720642, 0.655517578125, 0.40771484375, -0.747314453125, 0, 
348, 451851703, 6.307606220245361, 24.86355972290039, 28.173320770263672, -4.8132805824279785, 1.0322093963623047, 8.738819122314453, -0.41771695017814636, -3.101858377456665, 0.477743923664093, 0.654052734375, 0.40625, -0.749267578125, 0, 
349, 451860036, 6.309858798980713, 24.88355827331543, 28.193994522094727, -4.817739486694336, 1.021976113319397, 8.701383590698242, -0.43400755524635315, -3.0722737312316895, 0.4958275556564331, 0.657470703125, 0.4072265625, -0.750244140625, 0, 
350, 451868369, 6.3081865310668945, 24.867076873779297, 28.200586318969727, -4.816288471221924, 1.0387219190597534, 8.68581771850586, -0.39599609375, -3.1146652698516846, 0.5663691759109497, 0.654052734375, 0.40771484375, -0.750244140625, 0, 
351, 451876702, 6.3109517097473145, 24.8874568939209, 28.221372604370117, -4.806360244750977, 1.0157108306884766, 8.727431297302246, -0.36075085401535034, -3.0482473373413086, 0.46224719285964966, 0.655517578125, 0.40478515625, -0.742919921875, 0, 
352, 451885035, 6.310334205627441, 24.870708465576172, 28.227375030517578, -4.817618370056152, 1.0091947317123413, 8.705894470214844, -0.2372390180826187, -3.1686856746673584, 0.5037167072296143, 0.655517578125, 0.4033203125, -0.750732421875, 0, 
353, 451893368, 6.313039779663086, 24.890329360961914, 28.249574661254883, -4.790194034576416, 1.026779055595398, 8.712201118469238, -0.35094061493873596, -3.1617441177368164, 0.4389127194881439, 0.655517578125, 0.40478515625, -0.749267578125, 0, 
354, 451901701, 6.3113226890563965, 24.87453269958496, 28.256240844726562, -4.783716678619385, 1.0310708284378052, 8.671507835388184, -0.4040645658969879, -3.0604658126831055, 0.5594533085823059, 0.655029296875, 0.40380859375, -0.746337890625, 0, 
355, 451910034, 6.314801216125488, 24.895584106445312, 28.276243209838867, -4.785491943359375, 1.0417683124542236, 8.693492889404297, -0.29466620087623596, -3.0004003047943115, 0.5002332329750061, 0.657470703125, 0.40380859375, -0.749267578125, 0, 
356, 451918367, 6.3146514892578125, 24.881195068359375, 28.282014846801758, -4.793281078338623, 1.0339884757995605, 8.738234519958496, -0.17007853090763092, -2.9158477783203125, 0.4416790306568146, 0.655029296875, 0.4052734375, -0.747802734375, 0, 
357, 451926700, 6.3174967765808105, 24.903522491455078, 28.30258560180664, -4.80683708190918, 1.0711982250213623, 8.73106575012207, -0.31157156825065613, -2.880269765853882, 0.35489803552627563, 0.653076171875, 0.40478515625, -0.750732421875, 0, 
358, 451935033, 6.316147804260254, 24.88939666748047, 28.30885887145996, -4.819454193115234, 0.9786626696586609, 8.703890800476074, -0.3368527889251709, -2.8913347721099854, 0.49008992314338684, 0.656005859375, 0.40234375, -0.748779296875, 0, 
359, 451943366, 6.320109844207764, 24.910764694213867, 28.3249568939209, -4.808064937591553, 1.075563669204712, 8.705085754394531, -0.2633912265300751, -2.9915378093719482, 0.5389363765716553, 0.654052734375, 0.404296875, -0.750244140625, 0, 
360, 451951699, 6.318315029144287, 24.89609718322754, 28.331058502197266, -4.819295883178711, 1.0175797939300537, 8.691649436950684, -0.38180577754974365, -2.9729421138763428, 0.4764888286590576, 0.654541015625, 0.40380859375, -0.746826171875, 0, 
361, 451960032, 6.321141242980957, 24.91729736328125, 28.348386764526367, -4.799651145935059, 1.0477007627487183, 8.717839241027832, -0.3816777169704437, -3.03257155418396, 0.5071234107017517, 0.655029296875, 0.400390625, -0.747314453125, 0, 
362, 451968365, 6.319068908691406, 24.901103973388672, 28.35454750061035, -4.8069376945495605, 1.037467122077942, 8.688139915466309, -0.4183572828769684, -3.167020559310913, 0.5021030306816101, 0.652099609375, 0.40380859375, -0.745361328125, 0, 
363, 451976698, 6.321490287780762, 24.921255111694336, 28.375133514404297, -4.827878952026367, 0.991279661655426, 8.736200332641602, -0.42734789848327637, -3.1736807823181152, 0.514320969581604, 0.652587890625, 0.404296875, -0.748291015625, 0, 
364, 451985031, 6.318702220916748, 24.90484046936035, 28.381006240844727, -4.804658889770508, 1.0092650651931763, 8.717144012451172, -0.4887964129447937, -3.210308790206909, 0.4729796051979065, 0.652587890625, 0.4033203125, -0.749267578125, 0, 
365, 451993364, 6.322432518005371, 24.925037384033203, 28.396379470825195, -4.796651840209961, 1.0381920337677002, 8.726958274841309, -0.252838134765625, -3.1888184547424316, 0.4782305359840393, 0.652099609375, 0.40478515625, -0.749755859375, 0, 
366, 452001697, 6.3212504386901855, 24.909021377563477, 28.40253257751465, -4.810007572174072, 1.038954257965088, 8.71361255645752, -0.31034204363822937, -3.1718873977661133, 0.49639105796813965, 0.655517578125, 0.40625, -0.750244140625, 0, 
367, 452010030, 6.32450532913208, 24.930580139160156, 28.416440963745117, -4.805360794067383, 1.0245652198791504, 8.698775291442871, -0.33490613102912903, -3.0352611541748047, 0.5163957476615906, 0.654052734375, 0.40283203125, -0.745361328125, 0, 
368, 452018363, 6.32340669631958, 24.91615104675293, 28.42292594909668, -4.788159370422363, 1.0416314601898193, 8.743717193603516, -0.3183336853981018, -2.9910764694213867, 0.5105557441711426, 0.654541015625, 0.40625, -0.747314453125, 0, 
369, 452026696, 6.325953960418701, 24.938106536865234, 28.44227409362793, -4.804696559906006, 1.02390456199646, 8.737750053405762, -0.41302958130836487, -3.004601240158081, 0.5019493699073792, 0.655517578125, 0.4072265625, -0.750732421875, 0, 
370, 452035029, 6.324038982391357, 24.923553466796875, 28.44829750061035, -4.774148941040039, 1.0478813648223877, 8.685782432556152, -0.3920002579689026, -3.024247407913208, 0.46214479207992554, 0.653076171875, 0.40576171875, -0.748291015625, 0, 
371, 452043362, 6.327289581298828, 24.945919036865234, 28.463523864746094, -4.805450916290283, 1.064630150794983, 8.71854305267334, -0.354500949382782, -2.961543083190918, 0.5451861619949341, 0.652587890625, 0.40576171875, -0.751708984375, 0, 
372, 452051695, 6.325970649719238, 24.931425094604492, 28.470277786254883, -4.811797618865967, 1.013491153717041, 8.722977638244629, -0.35754916071891785, -3.0223774909973145, 0.5382447242736816, 0.657470703125, 0.40283203125, -0.748779296875, 0, 
373, 452060028, 6.330305576324463, 24.95318031311035, 28.482038497924805, -4.815257549285889, 1.0364112854003906, 8.689785957336426, -0.21700377762317657, -3.047248363494873, 0.5309702157974243, 0.654541015625, 0.4033203125, -0.747314453125, 0, 
374, 452068361, 6.328494548797607, 24.9377384185791, 28.487287521362305, -4.797930717468262, 1.0240486860275269, 8.739486694335938, -0.3394654393196106, -3.1674816608428955, 0.3870694935321808, 0.652099609375, 0.40771484375, -0.750244140625, 0, 
375, 452076694, 6.3316650390625, 24.959205627441406, 28.50475311279297, -4.799205303192139, 1.0210241079330444, 8.711018562316895, -0.3371857702732086, -3.098093032836914, 0.49954158067703247, 0.656982421875, 0.40283203125, -0.749267578125, 0, 
376, 452085027, 6.33148193359375, 24.942672729492188, 28.511770248413086, -4.807107925415039, 1.0265403985977173, 8.730194091796875, -0.23631694912910461, -3.2881252765655518, 0.5924188494682312, 0.650634765625, 0.408203125, -0.749755859375, 0, 
377, 452093360, 6.335104942321777, 24.96259880065918, 28.530620574951172, -4.808497905731201, 1.0486143827438354, 8.739625930786133, -0.30662801861763, -3.2887394428253174, 0.5787152051925659, 0.657470703125, 0.40576171875, -0.749755859375, 0, 
378, 452101693, 6.333362579345703, 24.946693420410156, 28.537090301513672, -4.80258321762085, 1.0450674295425415, 8.730487823486328, -0.3946385085582733, -3.2327215671539307, 0.522773802280426, 0.656494140625, 0.40673828125, -0.750244140625, 0, 
379, 452110026, 6.33760929107666, 24.967668533325195, 28.55442237854004, -4.799502372741699, 1.0378813743591309, 8.727251052856445, -0.24920089542865753, -3.169710397720337, 0.5964915156364441, 0.654541015625, 0.404296875, -0.746826171875, 0, 
380, 452118359, 6.337301254272461, 24.953523635864258, 28.56075668334961, -4.793751239776611, 1.0346983671188354, 8.706907272338867, -0.2143142968416214, -3.0373358726501465, 0.4847109317779541, 0.655029296875, 0.4013671875, -0.748779296875, 0, 
381, 452126692, 6.34113883972168, 24.97663116455078, 28.57633399963379, -4.79498815536499, 1.0150583982467651, 8.69278621673584, -0.2691287398338318, -2.9331371784210205, 0.5005149245262146, 0.656494140625, 0.40576171875, -0.751708984375, 0, 
382, 452135025, 6.340524673461914, 24.962961196899414, 28.583520889282227, -4.800562381744385, 1.038594126701355, 8.723100662231445, -0.2934367060661316, -2.9830596446990967, 0.5695709586143494, 0.656494140625, 0.4033203125, -0.748779296875, 0, 
383, 452143358, 6.344986915588379, 24.986465454101562, 28.598567962646484, -4.795915603637695, 1.0300252437591553, 8.698881149291992, -0.2586269676685333, -2.8806025981903076, 0.6318647265434265, 0.655517578125, 0.404296875, -0.748291015625, 0, 
384, 452151691, 6.34482479095459, 24.9725341796875, 28.60515785217285, -4.812094211578369, 1.0338751077651978, 8.724942207336426, -0.20914024114608765, -3.034620761871338, 0.5073027610778809, 0.656005859375, 0.4052734375, -0.748291015625, 0, 
385, 452160024, 6.347675323486328, 24.994312286376953, 28.620594024658203, -4.794641971588135, 1.0579018592834473, 8.6954927444458, -0.40757372975349426, -3.105060338973999, 0.5634491443634033, 0.654052734375, 0.4072265625, -0.746826171875, 0, 
386, 452168357, 6.346503257751465, 24.97923469543457, 28.627023696899414, -4.83088493347168, 1.045852541923523, 8.71384048461914, -0.3232772648334503, -3.186206102371216, 0.505740225315094, 0.656494140625, 0.40673828125, -0.749267578125, 0, 
387, 452176690, 6.350040912628174, 25.000106811523438, 28.63945198059082, -4.816340446472168, 1.0423296689987183, 8.691825866699219, -0.3314225971698761, -3.221681833267212, 0.5867069363594055, 0.653076171875, 0.404296875, -0.750244140625, 0, 
388, 452185023, 6.3491740226745605, 24.983991622924805, 28.646196365356445, -4.792119979858398, 1.0250309705734253, 8.704965591430664, -0.3030676543712616, -3.3188366889953613, 0.5502066016197205, 0.655029296875, 0.4033203125, -0.752197265625, 0, 
389, 452193356, 6.352272987365723, 25.00518035888672, 28.656707763671875, -4.814883232116699, 1.018133521080017, 8.72319507598877, -0.3706892132759094, -3.2010622024536133, 0.5492844581604004, 0.655029296875, 0.40771484375, -0.749755859375, 0, 
390, 452201689, 6.351139068603516, 24.990026473999023, 28.663148880004883, -4.796497344970703, 1.0438599586486816, 8.69754695892334, -0.3187691271305084, -3.2195041179656982, 0.5066623687744141, 0.655517578125, 0.40673828125, -0.746337890625, 0, 
391, 452210022, 6.355008602142334, 25.010957717895508, 28.67391014099121, -4.785259246826172, 1.0414307117462158, 8.718951225280762, -0.29492226243019104, -3.234052896499634, 0.5915735363960266, 0.655517578125, 0.4052734375, -0.746826171875, 0, 
392, 452218355, 6.353821754455566, 24.996929168701172, 28.680770874023438, -4.780275344848633, 1.0264018774032593, 8.737547874450684, -0.34725216031074524, -3.092841863632202, 0.5370151996612549, 0.654541015625, 0.4052734375, -0.751220703125, 0, 
393, 452226688, 6.356372833251953, 25.019441604614258, 28.694211959838867, -4.777527809143066, 1.0489165782928467, 8.708939552307129, -0.4178450107574463, -3.0618233680725098, 0.4975949823856354, 0.654052734375, 0.404296875, -0.748779296875, 0, 
394, 452235021, 6.3548102378845215, 25.006834030151367, 28.70025634765625, -4.7918195724487305, 1.0378143787384033, 8.73470687866211, -0.3514785170555115, -2.945175886154175, 0.43046000599861145, 0.655029296875, 0.40478515625, -0.747802734375, 0, 
395, 452243354, 6.35715913772583, 25.03071403503418, 28.71112823486328, -4.789750099182129, 1.0399214029312134, 8.716719627380371, -0.43790099024772644, -2.904961585998535, 0.4699828028678894, 0.653076171875, 0.40380859375, -0.750732421875, 0, 
396, 452251687, 6.354820251464844, 25.018625259399414, 28.71773910522461, -4.799533843994141, 1.0534179210662842, 8.693707466125488, -0.4756819009780884, -2.8898746967315674, 0.48676010966300964, 0.656982421875, 0.404296875, -0.748779296875, 0, 
397, 452260020, 6.356819152832031, 25.04091453552246, 28.72637176513672, -4.809915065765381, 1.0404046773910522, 8.712822914123535, -0.4813426434993744, -3.0973496437072754, 0.4931124448776245, 0.654541015625, 0.4052734375, -0.750244140625, 0, 
398, 452268353, 6.353960037231445, 25.02692413330078, 28.73219108581543, -4.798261642456055, 1.0457919836044312, 8.695173263549805, -0.49796631932258606, -3.1375389099121094, 0.42500418424606323, 0.655029296875, 0.40380859375, -0.748779296875, 0, 
399, 452276686, 6.355494976043701, 25.04880142211914, 28.74070167541504, -4.779171466827393, 1.0362143516540527, 8.67951488494873, -0.503140389919281, -3.163921594619751, 0.4268227815628052, 0.656005859375, 0.40771484375, -0.749755859375, 0, 
400, 452285019, 6.353020191192627, 25.034313201904297, 28.746835708618164, -4.800224304199219, 1.0189661979675293, 8.739950180053711, -0.46886852383613586, -3.2044687271118164, 0.46603816747665405, 0.654052734375, 0.4052734375, -0.750244140625, 0, 
401, 452293352, 6.355269908905029, 25.05605125427246, 28.75504493713379, -4.810949802398682, 1.0291988849639893, 8.700589179992676, -0.4109291732311249, -3.1882553100585938, 0.4131704270839691, 0.652099609375, 0.40478515625, -0.748291015625, 0, 
402, 452301685, 6.352188587188721, 25.041574478149414, 28.76130485534668, -4.805403232574463, 1.0695446729660034, 8.685032844543457, -0.5482982993125916, -3.2151753902435303, 0.4814835786819458, 0.653564453125, 0.40576171875, -0.750244140625, 0, 
403, 452310018, 6.355030536651611, 25.064170837402344, 28.7685546875, -4.776724815368652, 1.0309360027313232, 8.734039306640625, -0.37673419713974, -3.0826990604400635, 0.48204711079597473, 0.652587890625, 0.40380859375, -0.747802734375, 0, 
404, 452318351, 6.3527655601501465, 25.051639556884766, 28.774717330932617, -4.789034366607666, 1.054068922996521, 8.695226669311523, -0.4464305341243744, -2.995687246322632, 0.44511133432388306, 0.655029296875, 0.40185546875, -0.750732421875, 0, 
405, 452326684, 6.354798793792725, 25.07578468322754, 28.782800674438477, -4.77304220199585, 1.0218532085418701, 8.716673851013184, -0.46523141860961914, -2.903245449066162, 0.44134604930877686, 0.651611328125, 0.4052734375, -0.750732421875, 0, 
406, 452335017, 6.353088855743408, 25.065101623535156, 28.788862228393555, -4.792633056640625, 1.042776346206665, 8.70605754852295, -0.37417274713516235, -2.788954734802246, 0.4112493395805359, 0.650634765625, 0.40478515625, -0.748291015625, 0, 
407, 452343350, 6.355987548828125, 25.092166900634766, 28.793588638305664, -4.804566860198975, 1.0358049869537354, 8.705255508422852, -0.39625221490859985, -2.552304983139038, 0.47379928827285767, 0.654541015625, 0.4072265625, -0.748779296875, 0, 
408, 452351683, 6.354427814483643, 25.08281135559082, 28.800527572631836, -4.781745910644531, 1.0498353242874146, 8.700066566467285, -0.4042438566684723, -2.6298391819000244, 0.48842501640319824, 0.655517578125, 0.404296875, -0.751220703125, 0, 
409, 452360016, 6.3574934005737305, 25.108753204345703, 28.80772590637207, -4.813276767730713, 1.0302752256393433, 8.717286109924316, -0.37668296694755554, -2.6912620067596436, 0.4933430254459381, 0.654541015625, 0.40625, -0.747314453125, 0, 
410, 452368349, 6.354391574859619, 25.098743438720703, 28.81250762939453, -4.786159515380859, 1.0612525939941406, 8.682075500488281, -0.4793704152107239, -2.748023271560669, 0.2667850852012634, 0.654541015625, 0.4033203125, -0.750244140625, 0, 
411, 452376682, 6.35556173324585, 25.123516082763672, 28.819461822509766, -4.798783302307129, 1.0239148139953613, 8.716804504394531, -0.5412800908088684, -2.8456902503967285, 0.37679824233055115, 0.655029296875, 0.40283203125, -0.748779296875, 0, 
412, 452385015, 6.351309776306152, 25.112512588500977, 28.824792861938477, -4.840093612670898, 1.0219849348068237, 8.67884635925293, -0.6471948623657227, -2.870100498199463, 0.34034913778305054, 0.655029296875, 0.40185546875, -0.747802734375, 0, 
413, 452393348, 6.352658748626709, 25.137121200561523, 28.83281135559082, -4.822242736816406, 1.0324063301086426, 8.665526390075684, -0.49796637892723083, -2.8755311965942383, 0.3344579041004181, 0.655517578125, 0.4052734375, -0.748779296875, 0, 
414, 452401681, 6.349191188812256, 25.1257381439209, 28.838342666625977, -4.784665584564209, 1.043321132659912, 8.687560081481934, -0.5647169351577759, -2.926093101501465, 0.3681661784648895, 0.655029296875, 0.404296875, -0.750732421875, 0, 
415, 452410014, 6.349766254425049, 25.149457931518555, 28.844907760620117, -4.799746513366699, 1.0448715686798096, 8.708202362060547, -0.5946345329284668, -2.9865429401397705, 0.35710084438323975, 0.656494140625, 0.40478515625, -0.748291015625, 0, 
416, 452418347, 6.346311569213867, 25.1380615234375, 28.851289749145508, -4.7923126220703125, 1.045143723487854, 8.670552253723145, -0.6055461168289185, -2.928398609161377, 0.459301620721817, 0.655517578125, 0.40380859375, -0.747314453125, 0, 
417, 452426680, 6.3468451499938965, 25.16115951538086, 28.85967445373535, -4.796162128448486, 1.0363094806671143, 8.731669425964355, -0.6263960599899292, -3.0560855865478516, 0.41527077555656433, 0.654541015625, 0.4033203125, -0.749267578125, 0, 
418, 452435013, 6.342558860778809, 25.149486541748047, 28.8646297454834, -4.783965110778809, 1.0397095680236816, 8.708219528198242, -0.6337218284606934, -2.9905130863189697, 0.311353862285614, 0.656005859375, 0.40380859375, -0.747802734375, 0, 
419, 452443346, 6.343083381652832, 25.1734619140625, 28.870704650878906, -4.813776969909668, 1.0404480695724487, 8.700129508972168, -0.6152026653289795, -2.9571120738983154, 0.37918034195899963, 0.656982421875, 0.40869140625, -0.749267578125, 0, 
420, 452451679, 6.3393754959106445, 25.161996841430664, 28.876066207885742, -4.79682731628418, 1.0501295328140259, 8.720561027526855, -0.5866684317588806, -2.973735809326172, 0.3531818687915802, 0.654541015625, 0.40234375, -0.749267578125, 0, 
421, 452460012, 6.340123653411865, 25.185789108276367, 28.880916595458984, -4.794798374176025, 1.027632713317871, 8.726175308227539, -0.5916631817817688, -2.9807538986206055, 0.38819655776023865, 0.657470703125, 0.404296875, -0.750244140625, 0, 
422, 452468345, 6.336196422576904, 25.173728942871094, 28.886119842529297, -4.812587738037109, 1.0277241468429565, 8.732518196105957, -0.6068781018257141, -3.0558295249938965, 0.34424251317977905, 0.652587890625, 0.40673828125, -0.747802734375, 0, 
423, 452476678, 6.336449146270752, 25.197175979614258, 28.89369773864746, -4.801828384399414, 1.044228434562683, 8.700310707092285, -0.6645101308822632, -3.016486167907715, 0.42441511154174805, 0.655517578125, 0.40478515625, -0.750732421875, 0, 
424, 452485011, 6.3331685066223145, 25.184587478637695, 28.900104522705078, -4.801359176635742, 1.0495702028274536, 8.693976402282715, -0.591099739074707, -3.1172780990600586, 0.4835839569568634, 0.652587890625, 0.404296875, -0.749267578125, 0, 
425, 452493344, 6.3330512046813965, 25.207059860229492, 28.9045352935791, -4.796708106994629, 1.0393433570861816, 8.720084190368652, -0.6934798359870911, -3.139434576034546, 0.3993643522262573, 0.655029296875, 0.408203125, -0.746826171875, 0, 
426, 452501677, 6.329263210296631, 25.194984436035156, 28.911012649536133, -4.789222717285156, 1.0426087379455566, 8.710639953613281, -0.6559805274009705, -3.065408945083618, 0.48563307523727417, 0.654052734375, 0.40771484375, -0.748291015625, 0, 
427, 452510010, 6.330596446990967, 25.217300415039062, 28.915063858032227, -4.798084735870361, 1.0117477178573608, 8.699552536010742, -0.549194872379303, -3.1507816314697266, 0.46263155341148376, 0.656005859375, 0.40576171875, -0.750244140625, 0, 
428, 452518343, 6.327390193939209, 25.204740524291992, 28.92071533203125, -4.779355049133301, 1.0421690940856934, 8.696117401123047, -0.5448660254478455, -3.1452231407165527, 0.4046664834022522, 0.655029296875, 0.40673828125, -0.746826171875, 0, 
429, 452526676, 6.327885627746582, 25.228731155395508, 28.924724578857422, -4.763186931610107, 1.0797942876815796, 8.697196960449219, -0.6380506157875061, -2.9546022415161133, 0.4162185490131378, 0.654052734375, 0.4052734375, -0.749755859375, 0, 
430, 452535009, 6.324267864227295, 25.218034744262695, 28.930681228637695, -4.791594982147217, 1.0174554586410522, 8.724452018737793, -0.6115398406982422, -2.928680419921875, 0.4139644503593445, 0.654541015625, 0.4072265625, -0.748779296875, 0, 
431, 452543342, 6.324555397033691, 25.24321174621582, 28.932716369628906, -4.8223652839660645, 1.0236375331878662, 8.720608711242676, -0.6366930603981018, -2.818692922592163, 0.34206533432006836, 0.653564453125, 0.408203125, -0.748779296875, 0, 
432, 452551675, 6.320895671844482, 25.232717514038086, 28.938501358032227, -4.800148963928223, 0.9994940757751465, 8.688358306884766, -0.6100285053253174, -2.9187164306640625, 0.39416465163230896, 0.653564453125, 0.40478515625, -0.748291015625, 0, 
433, 452560008, 6.321738243103027, 25.257762908935547, 28.938289642333984, -4.774869441986084, 1.0331028699874878, 8.695672035217285, -0.5568278431892395, -2.834599494934082, 0.31921741366386414, 0.655029296875, 0.40380859375, -0.747314453125, 0, 
434, 452568341, 6.318718433380127, 25.247289657592773, 28.94382095336914, -4.7862467765808105, 1.0217305421829224, 8.712480545043945, -0.5221205949783325, -2.9313442707061768, 0.3688834607601166, 0.652587890625, 0.4072265625, -0.746826171875, 0, 
435, 452576674, 6.319133281707764, 25.270936965942383, 28.948339462280273, -4.809113025665283, 1.0109410285949707, 8.723296165466309, -0.6159711480140686, -2.9958410263061523, 0.3625054657459259, 0.656494140625, 0.40625, -0.743896484375, 0, 
436, 452585007, 6.31566858291626, 25.259502410888672, 28.954309463500977, -4.800512313842773, 1.003045678138733, 8.722407341003418, -0.5985534191131592, -3.051424026489258, 0.43089550733566284, 0.655517578125, 0.4052734375, -0.751220703125, 0, 
437, 452593340, 6.316316604614258, 25.282001495361328, 28.9606990814209, -4.813142776489258, 1.047656774520874, 8.70121955871582, -0.6095675230026245, -3.125500440597534, 0.431023508310318, 0.655029296875, 0.40478515625, -0.749267578125, 0, 
438, 452601673, 6.312568187713623, 25.270092010498047, 28.966350555419922, -4.784444332122803, 1.0453447103500366, 8.668604850769043, -0.6186606287956238, -3.1234254837036133, 0.4056398272514343, 0.655029296875, 0.40478515625, -0.748779296875, 0, 
439, 452610006, 6.312760353088379, 25.292104721069336, 28.969045639038086, -4.796950817108154, 1.0359344482421875, 8.68321418762207, -0.701420247554779, -3.1730401515960693, 0.508762776851654, 0.652587890625, 0.40478515625, -0.746826171875, 0, 
440, 452618339, 6.308408260345459, 25.28000831604004, 28.975322723388672, -4.809370040893555, 1.0444152355194092, 8.713449478149414, -0.7223726511001587, -3.1476821899414062, 0.4766424596309662, 0.655517578125, 0.4052734375, -0.749755859375, 0, 
441, 452626672, 6.308390140533447, 25.303180694580078, 28.976238250732422, -4.795950889587402, 1.0416768789291382, 8.71573543548584, -0.6757290959358215, -3.0483498573303223, 0.38432878255844116, 0.655029296875, 0.40576171875, -0.751220703125, 0, 
442, 452635005, 6.304290294647217, 25.290847778320312, 28.981718063354492, -4.7891435623168945, 1.0337618589401245, 8.715214729309082, -0.65388023853302, -3.1955552101135254, 0.39498433470726013, 0.656005859375, 0.404296875, -0.747314453125, 0, 
443, 452643338, 6.30361270904541, 25.313512802124023, 28.98096466064453, -4.806662082672119, 1.0280214548110962, 8.731171607971191, -0.7170448899269104, -3.1144349575042725, 0.31178927421569824, 0.653076171875, 0.4052734375, -0.748779296875, 0, 
444, 452651671, 6.30067777633667, 25.301738739013672, 28.98660659790039, -4.794991970062256, 1.0178195238113403, 8.744685173034668, -0.5231707096099854, -3.1369240283966064, 0.4073047339916229, 0.653564453125, 0.40478515625, -0.749755859375, 0, 
445, 452660004, 6.299754619598389, 25.324853897094727, 28.985044479370117, -4.801838397979736, 1.0315178632736206, 8.70102310180664, -0.7277004718780518, -3.062668561935425, 0.2642236649990082, 0.655517578125, 0.40625, -0.748291015625, 0, 
446, 452668337, 6.295078277587891, 25.31391143798828, 28.990205764770508, -4.795693397521973, 1.0325491428375244, 8.704731941223145, -0.7093350291252136, -3.054266929626465, 0.34654778242111206, 0.654541015625, 0.40380859375, -0.751708984375, 0, 
447, 452676670, 6.2938313484191895, 25.336915969848633, 28.991052627563477, -4.8133955001831055, 1.0239241123199463, 8.684959411621094, -0.8031086325645447, -3.062822103500366, 0.3493909537792206, 0.657470703125, 0.4052734375, -0.746337890625, 0, 
448, 452685003, 6.289034843444824, 25.325864791870117, 28.996564865112305, -4.79325532913208, 1.0292147397994995, 8.719609260559082, -0.7431970834732056, -3.0726072788238525, 0.3892979621887207, 0.655517578125, 0.40673828125, -0.749267578125, 0, 
449, 452693336, 6.287596702575684, 25.347530364990234, 29.001331329345703, -4.796276092529297, 1.0247881412506104, 8.7343168258667, -0.8491118550300598, -3.2148678302764893, 0.4228782057762146, 0.658447265625, 0.4072265625, -0.750244140625, 0, 
450, 452701669, 6.281928539276123, 25.335268020629883, 29.006420135498047, -4.786318778991699, 1.0228149890899658, 8.701783180236816, -0.8293377161026001, -3.232567548751831, 0.3612503409385681, 0.652587890625, 0.4033203125, -0.748779296875, 0, 
451, 452710002, 6.280612468719482, 25.358366012573242, 29.008493423461914, -4.801887035369873, 1.016825795173645, 8.717512130737305, -0.8161975741386414, -3.0433552265167236, 0.36422163248062134, 0.656005859375, 0.408203125, -0.750244140625, 0, 
452, 452718335, 6.276052951812744, 25.346647262573242, 29.014205932617188, -4.7941999435424805, 1.0213110446929932, 8.728440284729004, -0.7295958399772644, -3.17252779006958, 0.42441505193710327, 0.655029296875, 0.40576171875, -0.747314453125, 0, 
453, 452726668, 6.274164199829102, 25.367431640625, 29.011611938476562, -4.794955253601074, 1.0270634889602661, 8.698210716247559, -0.8475238680839539, -3.3224995136260986, 0.31084156036376953, 0.656982421875, 0.4072265625, -0.749267578125, 0, 
454, 452735001, 6.268495559692383, 25.354562759399414, 29.016767501831055, -4.811554431915283, 1.0311022996902466, 8.680835723876953, -0.8354595899581909, -3.3253939151763916, 0.3804354667663574, 0.651611328125, 0.4052734375, -0.751220703125, 0, 
455, 452743334, 6.267287731170654, 25.37436294555664, 29.01651954650879, -4.809051036834717, 1.011114478111267, 8.722295761108398, -0.7649179697036743, -3.4363036155700684, 0.3303852081298828, 0.653076171875, 0.40673828125, -0.748291015625, 0, 
456, 452751667, 6.261592864990234, 25.360628128051758, 29.02161407470703, -4.806996822357178, 1.024986743927002, 8.729509353637695, -0.8365609645843506, -3.4393773078918457, 0.3871976137161255, 0.654052734375, 0.40673828125, -0.747802734375, 0, 
457, 452760000, 6.26021146774292, 25.38028335571289, 29.018932342529297, -4.8128180503845215, 1.0230433940887451, 8.719171524047852, -0.8406848907470703, -3.436918258666992, 0.44208890199661255, 0.652587890625, 0.40576171875, -0.748779296875, 0, 
458, 452768333, 6.254344940185547, 25.365793228149414, 29.02397346496582, -4.799705982208252, 1.0016010999679565, 8.730391502380371, -0.8555665016174316, -3.539963483810425, 0.394395112991333, 0.651123046875, 0.40869140625, -0.747314453125, 0, 
459, 452776666, 6.253786087036133, 25.385334014892578, 29.021747589111328, -4.7993316650390625, 1.0017322301864624, 8.703986167907715, -0.7320292592048645, -3.4501352310180664, 0.4272838830947876, 0.653564453125, 0.40576171875, -0.748291015625, 0, 
460, 452784999, 6.248232841491699, 25.37173843383789, 29.0261287689209, -4.7982177734375, 1.0013161897659302, 8.699727058410645, -0.7867411971092224, -3.451031446456909, 0.3143506944179535, 0.654052734375, 0.40869140625, -0.748779296875, 0, 
461, 452793332, 6.2473602294921875, 25.39166831970215, 29.024250030517578, -4.776004791259766, 1.0058565139770508, 8.75859260559082, -0.7691441774368286, -3.3986504077911377, 0.42702770233154297, 0.654541015625, 0.40673828125, -0.747802734375, 0, 
462, 452801665, 6.242281913757324, 25.37833023071289, 29.030120849609375, -4.772522926330566, 1.0165845155715942, 8.746622085571289, -0.8071814775466919, -3.4120211601257324, 0.47536179423332214, 0.653564453125, 0.4052734375, -0.747314453125, 0, 
463, 452809998, 6.241264820098877, 25.397869110107422, 29.029191970825195, -4.785837650299072, 1.0246360301971436, 8.717588424682617, -0.7867412567138672, -3.4366366863250732, 0.43824678659439087, 0.657958984375, 0.40478515625, -0.749267578125, 0, 
464, 452818331, 6.235403060913086, 25.384790420532227, 29.033966064453125, -4.806210994720459, 1.0137563943862915, 8.719456672668457, -0.8474981784820557, -3.40492582321167, 0.35774120688438416, 0.656494140625, 0.40576171875, -0.748291015625, 0, 
465, 452826664, 6.235267162322998, 25.404468536376953, 29.03660011291504, -4.803088188171387, 1.0206071138381958, 8.71498966217041, -0.6762157678604126, -3.4122002124786377, 0.4351218044757843, 0.656005859375, 0.408203125, -0.746826171875, 0, 
466, 452834997, 6.231395244598389, 25.391891479492188, 29.04338836669922, -4.811830520629883, 1.0060513019561768, 8.710466384887695, -0.7149189710617065, -3.3312084674835205, 0.5707236528396606, 0.653076171875, 0.40869140625, -0.748779296875, 0, 
467, 452843330, 6.23170804977417, 25.410934448242188, 29.04476547241211, -4.788734436035156, 0.995477020740509, 8.72346019744873, -0.6868200898170471, -3.470395565032959, 0.5772039890289307, 0.653564453125, 0.40869140625, -0.749755859375, 0, 
468, 452851663, 6.226985454559326, 25.396255493164062, 29.049392700195312, -4.792107105255127, 1.0099824666976929, 8.722518920898438, -0.706773579120636, -3.61706280708313, 0.36609143018722534, 0.654052734375, 0.408203125, -0.747802734375, 0, 
469, 452859996, 6.22564172744751, 25.414644241333008, 29.044437408447266, -4.811468124389648, 1.0015859603881836, 8.70195198059082, -0.7966794371604919, -3.5617868900299072, 0.39634180068969727, 0.656005859375, 0.40771484375, -0.748291015625, 0, 
470, 452868329, 6.220950603485107, 25.399818420410156, 29.050355911254883, -4.7979960441589355, 1.0227075815200806, 8.699592590332031, -0.7707579135894775, -3.62833309173584, 0.5096848607063293, 0.654541015625, 0.4072265625, -0.749267578125, 0, 
471, 452876662, 6.220923900604248, 25.417125701904297, 29.049823760986328, -4.795154571533203, 1.025236964225769, 8.724089622497559, -0.6767536401748657, -3.677640199661255, 0.5021541714668274, 0.654052734375, 0.40625, -0.749267578125, 0, 
472, 452884995, 6.216688632965088, 25.401214599609375, 29.055587768554688, -4.787549018859863, 1.0090994834899902, 8.759296417236328, -0.7102826237678528, -3.7697231769561768, 0.5109655261039734, 0.655517578125, 0.40625, -0.749267578125, 0, 
473, 452893328, 6.216060161590576, 25.417726516723633, 29.054033279418945, -4.790438652038574, 1.0115878582000732, 8.72631549835205, -0.7781859040260315, -3.7596824169158936, 0.5679571032524109, 0.652587890625, 0.408203125, -0.749267578125, 0, 
474, 452901661, 6.211150646209717, 25.40114974975586, 29.060016632080078, -4.781921863555908, 1.0092391967773438, 8.720627784729004, -0.8035441040992737, -3.8547627925872803, 0.5461850762367249, 0.655517578125, 0.40673828125, -0.751220703125, 0, 
475, 452909994, 6.209862232208252, 25.41736602783203, 29.055225372314453, -4.778890609741211, 1.0242701768875122, 8.686905860900879, -0.8239330649375916, -3.794466733932495, 0.5015138387680054, 0.653564453125, 0.40869140625, -0.750244140625, 0, 
476, 452918327, 6.205173015594482, 25.401832580566406, 29.06065559387207, -4.78439998626709, 1.0047990083694458, 8.721359252929688, -0.7517008781433105, -3.7475156784057617, 0.4762325882911682, 0.649169921875, 0.40625, -0.749755859375, 0, 
477, 452926660, 6.204736232757568, 25.417945861816406, 29.056339263916016, -4.786266326904297, 1.01815927028656, 8.692218780517578, -0.7547490000724792, -3.7936980724334717, 0.576512336730957, 0.654541015625, 0.40966796875, -0.750732421875, 0, 
478, 452934993, 6.200368881225586, 25.403230667114258, 29.062034606933594, -4.79102087020874, 1.022325038909912, 8.73490047454834, -0.7280333638191223, -3.654484987258911, 0.4982095956802368, 0.650146484375, 0.40625, -0.752197265625, 0, 
479, 452943326, 6.198517322540283, 25.42145538330078, 29.057043075561523, -4.7886834144592285, 1.0256752967834473, 8.730006217956543, -0.8650951385498047, -3.5488264560699463, 0.42085468769073486, 0.654541015625, 0.4091796875, -0.749755859375, 0, 
480, 452951659, 6.192822456359863, 25.40776824951172, 29.062366485595703, -4.788014888763428, 0.9942159056663513, 8.719258308410645, -0.8701667785644531, -3.5443952083587646, 0.44959384202957153, 0.652099609375, 0.40478515625, -0.747802734375, 0, 
481, 452959992, 6.190974235534668, 25.425806045532227, 29.058353424072266, -4.8051276206970215, 0.9568518400192261, 8.680315971374512, -0.8713962435722351, -3.56247878074646, 0.44121798872947693, 0.653076171875, 0.40673828125, -0.748291015625, 0, 
482, 452968325, 6.186509609222412, 25.411062240600586, 29.064804077148438, -4.79485559463501, 1.0258758068084717, 8.737393379211426, -0.7826941609382629, -3.6686501502990723, 0.5880900025367737, 0.653076171875, 0.408203125, -0.748779296875, 0, 
483, 452976658, 6.185186386108398, 25.427066802978516, 29.062171936035156, -4.7989726066589355, 0.998834490776062, 8.712874412536621, -0.8512890934944153, -3.7877562046051025, 0.5674961805343628, 0.653076171875, 0.4072265625, -0.750244140625, 0, 
484, 452984991, 6.180142402648926, 25.41044807434082, 29.06778907775879, -4.788980007171631, 0.9757308959960938, 8.724908828735352, -0.8118943572044373, -3.909961462020874, 0.5248740911483765, 0.653564453125, 0.408203125, -0.750732421875, 0, 
485, 452993324, 6.1800031661987305, 25.425596237182617, 29.064884185791016, -4.789862632751465, 1.0280706882476807, 8.744150161743164, -0.7000882625579834, -3.8861403465270996, 0.562296450138092, 0.655517578125, 0.40869140625, -0.751708984375, 0, 
486, 453001657, 6.175818920135498, 25.409366607666016, 29.071046829223633, -4.786850929260254, 1.008095145225525, 8.724172592163086, -0.7388938069343567, -3.867774724960327, 0.5818145275115967, 0.655029296875, 0.40869140625, -0.749755859375, 0, 
487, 453009990, 6.174348831176758, 25.424060821533203, 29.067956924438477, -4.785683631896973, 1.028802752494812, 8.69100284576416, -0.8358180522918701, -3.936293125152588, 0.5222870111465454, 0.652587890625, 0.41015625, -0.748779296875, 0, 
488, 453018323, 6.168846607208252, 25.406681060791016, 29.074527740478516, -4.78912878036499, 0.9935746788978577, 8.69448471069336, -0.9206523895263672, -4.007884502410889, 0.6445437669754028, 0.648681640625, 0.408203125, -0.750732421875, 0, 
